pid,trial_index,action_time,actions,block,path,queries,reward,rt,condition,bonus,score,simulation_mode,state_rewards,time_elapsed,trialTime,trial_type,reward_withheld
60fd5adad03767cff6dddda8,1,"[14322, 15141, 15843]","['left', 'left', 'down']",begin,"['0', '0', '9', '10', '12']","{'click': {'state': {'target': ['9', '5', '1', '4', '12', '8'], 'time': [4260, 6325, 7333, 10611, 12052, 13074]}, 'edge': {'target': [], 'time': []}}, 'mouseover': {'state': {'target': ['0', '9', '0', '5', '1', '0', '4', '12', '8'], 'time': [3324, 3711, 4893, 4993, 6911, 8911, 9932, 11799, 12779]}, 'edge': {'target': [], 'time': []}}, 'mouseout': {'state': {'target': ['1', '0', '0', '9', '0', '5', '1', '0', '1', '4', '12', '8'], 'time': [1155, 1427, 3659, 4872, 4962, 6849, 8809, 9159, 9259, 11308, 12412, 13533]}, 'edge': {'target': [], 'time': []}}}","[4, -4, 24]","[12556, 325, 203]",0,0,23,"[None, None, None]","['', 4, -8, 48, -24, 4, -4, -48, -48, 4, -4, 24, 24]",1042195,20318,mouselab-mdp,False
60fd5adad03767cff6dddda8,2,"[8307, 8959, 9608]","['up', 'up', 'left']",begin,"['0', '0', '1', '2', '4']","{'click': {'state': {'target': ['1', '9', '5', '4', '12', '8'], 'time': [2693, 3487, 4341, 5290, 6223, 7187]}, 'edge': {'target': [], 'time': []}}, 'mouseover': {'state': {'target': ['1', '1', '9', '0', '5', '4', '12', '8'], 'time': [2036, 2291, 3179, 3840, 4061, 4830, 5867, 6863]}, 'edge': {'target': [], 'time': []}}, 'mouseout': {'state': {'target': ['1', '1', '9', '0', '5', '1', '4', '12', '8'], 'time': [2098, 3071, 3838, 3862, 4684, 4731, 5581, 6473, 7571]}, 'edge': {'target': [], 'time': []}}}","[-4, -4, 48]","[6872, 157, 146]",0,0,39,"[None, None, None]","['', -4, -4, 24, 48, 4, -4, -24, 24, -4, -4, 24, 24]",1053507,11087,mouselab-mdp,False
60fd5adad03767cff6dddda8,3,"[11430, 12196, 12852]","['right', 'right', 'down']",begin,"['0', '0', '5', '6', '8']","{'click': {'state': {'target': ['9', '5', '1', '4', '12', '8', '3'], 'time': [2994, 3810, 4569, 5668, 6623, 7518, 8431]}, 'edge': {'target': [], 'time': []}}, 'mouseover': {'state': {'target': ['9', '5', '1', '4', '10', '12', '8', '8', '3', '0'], 'time': [2645, 3552, 4188, 5380, 6086, 6236, 6903, 7234, 8172, 8948]}, 'edge': {'target': [], 'time': []}}, 'mouseout': {'state': {'target': ['0', '9', '5', '1', '4', '10', '12', '8', '8', '3', '0'], 'time': [1724, 3285, 4153, 4995, 5965, 6137, 6899, 6965, 7846, 8880, 8966]}, 'edge': {'target': [], 'time': []}}}","[4, -8, -24]","[9181, 276, 98]",0,0,-30,"[None, None, None]","['', -4, 8, -24, -24, 4, -8, 48, -24, -4, -8, -24, -48]",1068518,14869,mouselab-mdp,False
60fd5adad03767cff6dddda8,4,"[9924, 10532, 11118]","['up', 'up', 'left']",begin,"['0', '0', '1', '2', '4']","{'click': {'state': {'target': ['1', '9', '5', '12', '8', '3', '4'], 'time': [3778, 4596, 5368, 6130, 6986, 7894, 8646]}, 'edge': {'target': [], 'time': []}}, 'mouseover': {'state': {'target': ['1', '1', '9', '5', '0', '12', '8', '3', '2', '4'], 'time': [2987, 3337, 4223, 4935, 5606, 5689, 6701, 7590, 8162, 8313]}, 'edge': {'target': [], 'time': []}}, 'mouseout': {'state': {'target': ['0', '1', '1', '9', '5', '0', '12', '8', '3', '2', '4', '9'], 'time': [906, 3021, 4165, 4839, 5591, 5623, 6385, 7321, 8158, 8193, 9227, 12165]}, 'edge': {'target': [], 'time': []}}}","[-2, 4, 24]","[8751, 72, 89]",0,0,24,"[None, None, None]","['', -2, 4, -24, 24, -4, -8, 24, -48, -4, -4, -48, -24]",1081279,12610,mouselab-mdp,False
60fd5adad03767cff6dddda8,5,"[10182, 10801, 11517]","['up', 'up', 'left']",begin,"['0', '0', '1', '2', '4']","{'click': {'state': {'target': ['9', '5', '1', '4', '3', '12', '8'], 'time': [1732, 2422, 3113, 5465, 6832, 7870, 8691]}, 'edge': {'target': [], 'time': []}}, 'mouseover': {'state': {'target': ['9', '0', '5', '1', '4', '2', '3', '10', '12', '8'], 'time': [1462, 2004, 2133, 2737, 3721, 5791, 6139, 7366, 7579, 8411]}, 'edge': {'target': [], 'time': []}}, 'mouseout': {'state': {'target': ['0', '9', '0', '5', '1', '4', '2', '3', '10', '12', '8'], 'time': [1349, 1975, 2039, 2689, 3637, 5770, 5861, 7314, 7393, 8108, 9140]}, 'edge': {'target': [], 'time': []}}}","[2, 4, 48]","[9273, 127, 219]",0,0,52,"[None, None, None]","['', 2, 4, 24, 48, -2, 8, 24, -24, -4, -4, 48, 48]",1094339,12889,mouselab-mdp,False
60fd5adad03767cff6dddda8,6,"[10470, 11186, 11909]","['left', 'left', 'down']",begin,"['0', '0', '9', '10', '12']","{'click': {'state': {'target': ['4', '3', '10', '6', '12'], 'time': [1829, 2811, 4618, 6790, 8913]}, 'edge': {'target': [], 'time': []}}, 'mouseover': {'state': {'target': ['4', '2', '3', '9', '10', '6', '12'], 'time': [1439, 2218, 2492, 3270, 3608, 6017, 8538]}, 'edge': {'target': [], 'time': []}}, 'mouseout': {'state': {'target': ['0', '4', '2', '3', '9', '10', '6'], 'time': [1375, 2217, 2250, 3188, 3320, 5660, 8209]}, 'edge': {'target': [], 'time': []}}}","[2, 8, 48]","[9342, 204, 230]",0,0,58,"[None, None, None]","['', 2, 8, 24, 24, 2, -8, -24, -48, 2, 8, -48, 48]",1109360,14850,mouselab-mdp,False
60fd5adad03767cff6dddda8,7,"[7287, 7981, 8732]","['up', 'up', 'right']",begin,"['0', '0', '1', '2', '3']","{'click': {'state': {'target': ['4', '12', '8', '3'], 'time': [3293, 4269, 5163, 6089]}, 'edge': {'target': [], 'time': []}}, 'mouseover': {'state': {'target': ['0', '9', '4', '9', '12', '8', '3', '0'], 'time': [2433, 2757, 2972, 3661, 3932, 4734, 5851, 6685]}, 'edge': {'target': [], 'time': []}}, 'mouseout': {'state': {'target': ['12', '0', '0', '9', '4', '9', '12', '8', '3', '0'], 'time': [571, 889, 2475, 2791, 3631, 3675, 4691, 5575, 6661, 6700]}, 'edge': {'target': [], 'time': []}}}","[-2, 8, 48]","[6076, 181, 251]",0,0,55,"[None, None, None]","['', -2, 8, 48, -48, 4, -8, 24, 24, 4, 4, -48, -24]",1120342,10748,mouselab-mdp,False
60fd5adad03767cff6dddda8,8,"[7430, 8169, 9429]","['up', 'up', 'right']",begin,"['0', '0', '1', '2', '3']","{'click': {'state': {'target': ['4', '3'], 'time': [5412, 6240]}, 'edge': {'target': [], 'time': []}}, 'mouseover': {'state': {'target': ['1', '4', '2', '3'], 'time': [4957, 5208, 5802, 6041]}, 'edge': {'target': [], 'time': []}}, 'mouseout': {'state': {'target': ['0', '0', '1', '4', '2', '3'], 'time': [3373, 4914, 4990, 5784, 5953, 6798]}, 'edge': {'target': [], 'time': []}}}","[4, -4, 48]","[2940, 223, 780]",0,0,51,"[None, None, None]","['', 4, -4, 48, -48, -4, -4, 48, -48, 4, 4, -48, -24]",1135779,15260,mouselab-mdp,False
60fd5adad03767cff6dddda8,9,"[9690, 10413, 11731]","['up', 'up', 'left']",begin,"['0', '0', '1', '2', '4']","{'click': {'state': {'target': ['4', '3', '12', '8', '5', '2'], 'time': [1911, 2789, 3667, 5396, 7606, 8423]}, 'edge': {'target': [], 'time': []}}, 'mouseover': {'state': {'target': ['4', '2', '3', '9', '12', '8', '8', '5', '2', '1', '9'], 'time': [1539, 2276, 2484, 3248, 3276, 4041, 5147, 7227, 8066, 8949, 9017]}, 'edge': {'target': [], 'time': []}}, 'mouseout': {'state': {'target': ['0', '4', '2', '3', '9', '12', '8', '8', '5', '2', '1', '9'], 'time': [1494, 2259, 2375, 3201, 3263, 3981, 4061, 5772, 7952, 8940, 8963, 12753]}, 'edge': {'target': [], 'time': []}}}","[2, 4, 24]","[8504, 205, 797]",0,0,29,"[None, None, None]","['', 2, 4, -48, 24, -4, -4, -24, 24, 2, -4, 24, -24]",1149726,13815,mouselab-mdp,False
60fd5adad03767cff6dddda8,10,"[10602, 11221, 12180]","['up', 'up', 'left']",begin,"['0', '0', '1', '2', '4']","{'click': {'state': {'target': ['4', '1'], 'time': [3973, 9723]}, 'edge': {'target': [], 'time': []}}, 'mouseover': {'state': {'target': ['1', '4', '1', '1', '1'], 'time': [3447, 3748, 7777, 8556, 9409]}, 'edge': {'target': [], 'time': []}}, 'mouseout': {'state': {'target': ['0', '1', '4', '1', '1', '1'], 'time': [2330, 3495, 4547, 8182, 9233, 10135]}, 'edge': {'target': [], 'time': []}}}","[4, -8, 48]","[7913, 113, 443]",0,0,47,"[None, None, None]","['', 4, -8, -48, 48, -2, 8, -48, 48, -2, -4, 24, -48]",1164001,14136,mouselab-mdp,False
60fd5adad03767cff6dddda8,11,"[7155, 8015, 8850]","['left', 'left', 'down']",test,"['0', '0', '9', '10', '12']","{'click': {'state': {'target': ['4', '3', '12'], 'time': [2861, 3789, 4705]}, 'edge': {'target': [], 'time': []}}, 'mouseover': {'state': {'target': ['4', '3', '12'], 'time': [2506, 3608, 4504]}, 'edge': {'target': [], 'time': []}}, 'mouseout': {'state': {'target': ['0', '0', '4', '3', '12'], 'time': [1578, 1634, 3281, 4225, 5100]}, 'edge': {'target': [], 'time': []}}}","[4, -8, 48]","[5047, 272, 340]",0,0,46,"[None, None, None]","['', 4, 4, -24, -48, -4, 4, -48, 24, 4, -8, -48, 48]",1175595,11443,mouselab-mdp,False
60fd5adad03767cff6dddda8,12,"[3997, 4772, 5455]","['left', 'left', 'down']",test,"['0', '0', '9', '10', '12']","{'click': {'state': {'target': ['4', '12'], 'time': [1990, 2824]}, 'edge': {'target': [], 'time': []}}, 'mouseover': {'state': {'target': ['4', '12'], 'time': [1672, 2433]}, 'edge': {'target': [], 'time': []}}, 'mouseout': {'state': {'target': ['0', '4', '12'], 'time': [1622, 2413, 3130]}, 'edge': {'target': [], 'time': []}}}","[2, -4, 48]","[2739, 248, 141]",0,0,49,"[None, None, None]","['', -4, 4, -48, -48, -4, 8, -24, 24, 2, -4, 48, 48]",1185898,10047,mouselab-mdp,False
60fd5adad03767cff6dddda8,13,"[14649, 15457, 16219]","['left', 'left', 'down']",test,"['0', '0', '9', '10', '12']","{'click': {'state': {'target': ['12', '8', '4', '3', '1', '9'], 'time': [2933, 3944, 4766, 5605, 9190, 11376]}, 'edge': {'target': [], 'time': []}}, 'mouseover': {'state': {'target': ['1', '4', '9', '12', '8', '1', '4', '2', '3', '0', '1', '9', '9', '10'], 'time': [1864, 2239, 2356, 2683, 3528, 4324, 4362, 5075, 5141, 7830, 8451, 9640, 10852, 13251]}, 'edge': {'target': [], 'time': []}}, 'mouseout': {'state': {'target': ['1', '4', '9', '12', '8', '1', '4', '2', '3', '0', '1', '9', '9', '9'], 'time': [1885, 2345, 2376, 3411, 4289, 4350, 5064, 5105, 7183, 7915, 9578, 10478, 12178, 13119]}, 'edge': {'target': [], 'time': []}}}","[-2, 8, 24]","[13403, 270, 195]",0,0,29,"[None, None, None]","['', -4, 8, 24, -24, 4, -8, -24, -24, -2, 8, -48, 24]",1203362,17238,mouselab-mdp,False
60fd5adad03767cff6dddda8,14,"[4705, 5314, 5988]","['up', 'up', 'right']",test,"['0', '0', '1', '2', '3']","{'click': {'state': {'target': ['4', '3'], 'time': [2717, 3552]}, 'edge': {'target': [], 'time': []}}, 'mouseover': {'state': {'target': ['4', '2', '3'], 'time': [2500, 3086, 3173]}, 'edge': {'target': [], 'time': []}}, 'mouseout': {'state': {'target': ['10', '9', '4', '2', '3', '0'], 'time': [822, 858, 3067, 3135, 3898, 6919]}, 'edge': {'target': [], 'time': []}}}","[2, 8, 48]","[3113, 100, 140]",0,0,61,"[None, None, None]","['', 2, 8, 48, -48, -2, -4, -24, 24, 4, -4, 48, -48]",1213990,10424,mouselab-mdp,False
60fd5adad03767cff6dddda8,15,"[9227, 10004, 10824]","['left', 'left', 'down']",test,"['0', '0', '9', '10', '12']","{'click': {'state': {'target': ['4', '3', '12', '8', '1', '10'], 'time': [2268, 3248, 4148, 5010, 7005, 8028]}, 'edge': {'target': [], 'time': []}}, 'mouseover': {'state': {'target': ['4', '3', '12', '8', '9', '1', '9', '10'], 'time': [1968, 2849, 3936, 4726, 6539, 6815, 7553, 7774]}, 'edge': {'target': [], 'time': []}}, 'mouseout': {'state': {'target': ['0', '4', '3', '12', '8', '9', '1', '9', '10'], 'time': [1871, 2756, 3570, 4437, 5603, 6588, 7497, 7737, 8548]}, 'edge': {'target': [], 'time': []}}}","[-4, 4, 24]","[7879, 262, 275]",0,0,23,"[None, None, None]","['', -4, -4, -24, 24, 4, 4, -24, -24, -4, 4, 24, 24]",1226061,11973,mouselab-mdp,False
60fd5adad03767cff6dddda8,16,"[7869, 8546, 9342]","['up', 'up', 'left']",test,"['0', '0', '1', '2', '4']","{'click': {'state': {'target': ['4'], 'time': [6547]}, 'edge': {'target': [], 'time': []}}, 'mouseover': {'state': {'target': ['4', '2', '3', '5'], 'time': [6219, 6915, 7126, 7167]}, 'edge': {'target': [], 'time': []}}, 'mouseout': {'state': {'target': ['0', '4', '2', '3', '5'], 'time': [794, 6885, 6932, 7153, 10470]}, 'edge': {'target': [], 'time': []}}}","[-2, -4, 48]","[6729, 176, 272]",0,0,46,"[None, None, None]","['', -2, -4, -48, 48, -2, -4, 24, 48, -4, -8, -24, 24]",1237601,11428,mouselab-mdp,False
60fd5adad03767cff6dddda8,17,"[8174, 8917, 10067]","['left', 'left', 'up']",test,"['0', '0', '9', '10', '11']","{'click': {'state': {'target': ['4', '3', '12', '8', '7', '11'], 'time': [2057, 2713, 3517, 5654, 6421, 7198]}, 'edge': {'target': [], 'time': []}}, 'mouseover': {'state': {'target': ['4', '3', '1', '9', '12', '8', '6', '7', '11', '10'], 'time': [1790, 2375, 3040, 3074, 3164, 5467, 5998, 6143, 6761, 7626]}, 'edge': {'target': [], 'time': []}}, 'mouseout': {'state': {'target': ['0', '4', '3', '1', '9', '12', '8', '6', '7', '11', '10'], 'time': [1497, 2335, 3028, 3057, 3091, 3779, 5992, 6010, 6693, 7620, 7657]}, 'edge': {'target': [], 'time': []}}}","[-4, 4, 48]","[7108, 251, 646]",0,0,47,"[None, None, None]","['', 4, 8, -48, 24, -2, 8, -48, -48, -4, 4, 48, -48]",1250263,12561,mouselab-mdp,False
60fd5adad03767cff6dddda8,18,"[6716, 7404, 8194]","['up', 'up', 'left']",test,"['0', '0', '1', '2', '4']","{'click': {'state': {'target': ['4'], 'time': [5508]}, 'edge': {'target': [], 'time': []}}, 'mouseover': {'state': {'target': ['1', '4', '2', '0'], 'time': [4941, 5227, 5890, 6164]}, 'edge': {'target': [], 'time': []}}, 'mouseout': {'state': {'target': ['9', '1', '4', '2', '0'], 'time': [571, 4958, 5858, 6024, 6201]}, 'edge': {'target': [], 'time': []}}}","[-4, -8, 48]","[5145, 115, 291]",0,0,40,"[None, None, None]","['', -4, -8, -48, 48, -2, -8, -48, -24, 4, 8, 24, -48]",1261717,11303,mouselab-mdp,False
60fd5adad03767cff6dddda8,19,"[5920, 6541, 7321]","['up', 'up', 'right']",test,"['0', '0', '1', '2', '3']","{'click': {'state': {'target': ['4', '3'], 'time': [4022, 4827]}, 'edge': {'target': [], 'time': []}}, 'mouseover': {'state': {'target': ['4', '2', '3'], 'time': [3550, 4397, 4575]}, 'edge': {'target': [], 'time': []}}, 'mouseout': {'state': {'target': ['0', '4', '2', '3'], 'time': [3140, 4350, 4422, 5286]}, 'edge': {'target': [], 'time': []}}}","[4, 4, 48]","[4427, 130, 219]",0,0,59,"[None, None, None]","['', 4, 4, 48, -48, -2, -8, -48, -24, 2, 4, -24, -48]",1272245,10337,mouselab-mdp,False
60fd5adad03767cff6dddda8,20,"[7197, 7831, 8466]","['up', 'up', 'left']",test,"['0', '0', '1', '2', '4']","{'click': {'state': {'target': ['4'], 'time': [6110]}, 'edge': {'target': [], 'time': []}}, 'mouseover': {'state': {'target': ['4', '2'], 'time': [3052, 6510]}, 'edge': {'target': [], 'time': []}}, 'mouseout': {'state': {'target': ['1', '4', '2'], 'time': [768, 6498, 6538]}, 'edge': {'target': [], 'time': []}}}","[2, -8, 48]","[4991, 137, 86]",0,0,46,"[None, None, None]","['', 2, -8, -24, 48, -4, -8, 24, -48, 4, -8, -24, -24]",1284119,11637,mouselab-mdp,False
60fd5adad03767cff6dddda8,21,"[9194, 9868, 10515]","['up', 'up', 'right']",test,"['0', '0', '1', '2', '3']","{'click': {'state': {'target': ['4', '3', '12', '8', '7', '11'], 'time': [1837, 2603, 4039, 4891, 6359, 7234]}, 'edge': {'target': [], 'time': []}}, 'mouseover': {'state': {'target': ['1', '4', '2', '3', '1', '9', '12', '12', '8', '6', '7', '1', '11', '9'], 'time': [1379, 1585, 2168, 2203, 2952, 2986, 3303, 3839, 4674, 5172, 6209, 6720, 6954, 7692]}, 'edge': {'target': [], 'time': []}}, 'mouseout': {'state': {'target': ['0', '1', '4', '2', '3', '1', '9', '12', '12', '8', '6', '7', '1', '11', '9'], 'time': [694, 1418, 2151, 2184, 2921, 2968, 3021, 3369, 4305, 5171, 5205, 6689, 6737, 7646, 11442]}, 'edge': {'target': [], 'time': []}}}","[2, -8, 24]","[8114, 177, 114]",0,0,17,"[None, None, None]","['', 2, -8, 24, -24, -2, 8, -48, -48, 2, -8, -24, -48]",1296266,11925,mouselab-mdp,False
60fd5adad03767cff6dddda8,22,"[11844, 12520, 13194]","['left', 'left', 'up']",test,"['0', '0', '9', '10', '11']","{'click': {'state': {'target': ['4', '3', '12', '11', '7', '8'], 'time': [5659, 7466, 8354, 9090, 9853, 10624]}, 'edge': {'target': [], 'time': []}}, 'mouseover': {'state': {'target': ['4', '2', '2', '4', '3', '3', '1', '9', '12', '10', '11', '1', '7', '6', '8'], 'time': [5043, 5076, 5258, 5310, 6176, 7227, 7872, 7884, 7962, 8809, 8833, 9350, 9626, 10167, 10210]}, 'edge': {'target': [], 'time': []}}, 'mouseout': {'state': {'target': ['0', '4', '2', '2', '4', '3', '3', '1', '9', '12', '10', '11', '1', '7', '6', '8'], 'time': [4334, 5058, 5146, 5291, 6131, 6411, 7864, 7882, 7896, 8788, 8830, 9337, 9357, 10130, 10193, 11008]}, 'edge': {'target': [], 'time': []}}}","[4, -8, 24]","[8048, 171, 178]",0,0,19,"[None, None, None]","['', -4, -4, -24, -48, -4, 8, -24, -48, 4, -8, 24, -24]",1310526,14060,mouselab-mdp,False
60fd5adad03767cff6dddda8,23,"[4568, 5186, 5916]","['up', 'up', 'left']",test,"['0', '0', '1', '2', '4']","{'click': {'state': {'target': ['4'], 'time': [3381]}, 'edge': {'target': [], 'time': []}}, 'mouseover': {'state': {'target': ['4', '3'], 'time': [2948, 3943]}, 'edge': {'target': [], 'time': []}}, 'mouseout': {'state': {'target': ['4', '3'], 'time': [3721, 3991]}, 'edge': {'target': [], 'time': []}}}","[-2, -4, 48]","[2732, 114, 194]",0,0,46,"[None, None, None]","['', -2, -4, 48, 48, 2, 4, -48, 24, 4, -8, 24, -24]",1321230,10516,mouselab-mdp,False
60fd5adad03767cff6dddda8,24,"[7482, 8151, 8893]","['left', 'left', 'up']",test,"['0', '0', '9', '10', '11']","{'click': {'state': {'target': ['4', '3', '11'], 'time': [4395, 5338, 6264]}, 'edge': {'target': [], 'time': []}}, 'mouseover': {'state': {'target': ['4', '2', '3', '1', '10', '11', '12'], 'time': [3922, 4849, 4910, 5742, 5962, 5997, 6662]}, 'edge': {'target': [], 'time': []}}, 'mouseout': {'state': {'target': ['0', '4', '2', '3', '1', '10', '11', '12'], 'time': [3710, 4831, 4864, 5736, 5753, 5981, 6623, 6826]}, 'edge': {'target': [], 'time': []}}}","[-2, 8, 48]","[4328, 116, 245]",0,0,56,"[None, None, None]","['', -2, -4, -24, -24, 4, 8, 24, 24, -2, 8, 48, 48]",1334059,12560,mouselab-mdp,False
60fd5adad03767cff6dddda8,25,"[8997, 9688, 10416]","['up', 'up', 'left']",test,"['0', '0', '1', '2', '4']","{'click': {'state': {'target': ['4', '3', '11', '12', '7', '8'], 'time': [2516, 3406, 4210, 4970, 5962, 6772]}, 'edge': {'target': [], 'time': []}}, 'mouseover': {'state': {'target': ['4', '2', '3', '11', '12', '8', '6', '7', '6', '8'], 'time': [2141, 2855, 3311, 3962, 4573, 5449, 5551, 5718, 6241, 6470]}, 'edge': {'target': [], 'time': []}}, 'mouseout': {'state': {'target': ['0', '4', '2', '3', '11', '12', '8', '6', '7', '6', '8', '8'], 'time': [2100, 2836, 2871, 3755, 4520, 5254, 5518, 5560, 6223, 6270, 7727, 11655]}, 'edge': {'target': [], 'time': []}}}","[-4, -8, 24]","[7293, 190, 220]",0,0,11,"[None, None, None]","['', -4, -8, -24, 24, 4, 4, -48, -48, -4, -4, 24, -48]",1346299,11983,mouselab-mdp,False
60fd5adad03767cff6dddda8,26,"[8294, 8955, 9757]","['up', 'up', 'right']",test,"['0', '0', '1', '2', '3']","{'click': {'state': {'target': ['4', '3'], 'time': [6308, 7102]}, 'edge': {'target': [], 'time': []}}, 'mouseover': {'state': {'target': ['4', '2', '3', '9'], 'time': [6118, 6637, 6664, 7724]}, 'edge': {'target': [], 'time': []}}, 'mouseout': {'state': {'target': ['0', '4', '2', '3'], 'time': [5233, 6631, 6660, 7444]}, 'edge': {'target': [], 'time': []}}}","[4, -8, 48]","[3737, 135, 203]",0,0,47,"[None, None, None]","['', 4, -8, 48, 24, 4, -4, 48, 48, -4, 8, -48, 24]",1360476,14008,mouselab-mdp,False
60fd5adad03767cff6dddda8,27,"[14262, 14955, 15976]","['left', 'left', 'up']",test,"['0', '0', '9', '10', '11']","{'click': {'state': {'target': ['4', '3', '11', '7', '8', '12'], 'time': [5460, 6841, 7863, 8781, 9426, 10192]}, 'edge': {'target': [], 'time': []}}, 'mouseover': {'state': {'target': ['4', '3', '3', '12', '10', '11', '7', '6', '8', '12'], 'time': [1713, 6036, 6567, 7301, 7481, 7655, 8609, 9069, 9137, 9754]}, 'edge': {'target': [], 'time': []}}, 'mouseout': {'state': {'target': ['9', '4', '3', '3', '12', '10', '11', '7', '6', '8', '12'], 'time': [545, 5963, 6229, 7255, 7468, 7547, 8253, 9044, 9104, 9660, 10852]}, 'edge': {'target': [], 'time': []}}}","[-2, 8, 24]","[13237, 171, 483]",0,0,29,"[None, None, None]","['', 2, -4, -48, -48, -2, -4, -24, -48, -2, 8, 24, 24]",1377756,17061,mouselab-mdp,False
60fd5adad03767cff6dddda8,28,"[6309, 6970, 7591]","['left', 'left', 'down']",test,"['0', '0', '9', '10', '12']","{'click': {'state': {'target': ['4', '3', '11', '12'], 'time': [2676, 3364, 4102, 5109]}, 'edge': {'target': [], 'time': []}}, 'mouseover': {'state': {'target': ['4', '2', '3', '11', '10', '12', '5', '6'], 'time': [2347, 2958, 3090, 3967, 4361, 4875, 5357, 5406]}, 'edge': {'target': [], 'time': []}}, 'mouseout': {'state': {'target': ['0', '4', '2', '3', '11', '10', '12', '5', '6'], 'time': [2214, 2943, 3064, 3572, 4358, 4433, 5324, 5376, 5724]}, 'edge': {'target': [], 'time': []}}}","[4, -4, 48]","[4278, 145, 6]",0,0,49,"[None, None, None]","['', 2, -4, 24, -24, 2, -8, 48, 48, 4, -4, 24, 48]",1389652,11780,mouselab-mdp,False
60fd5adad03767cff6dddda8,29,"[9656, 10287, 10996]","['up', 'up', 'right']",test,"['0', '0', '1', '2', '3']","{'click': {'state': {'target': ['4', '3', '11', '12', '8', '7'], 'time': [1653, 2452, 3270, 4141, 5698, 6801]}, 'edge': {'target': [], 'time': []}}, 'mouseover': {'state': {'target': ['4', '3', '11', '10', '12', '8', '8', '6', '7'], 'time': [1352, 2264, 3015, 3673, 3844, 4516, 5413, 6005, 6064]}, 'edge': {'target': [], 'time': []}}, 'mouseout': {'state': {'target': ['0', '4', '3', '11', '10', '12', '8', '8', '6', '7'], 'time': [630, 2007, 2801, 3630, 3744, 4348, 4631, 5986, 6031, 7065]}, 'edge': {'target': [], 'time': []}}}","[-4, 8, 24]","[8662, 122, 206]",0,0,27,"[None, None, None]","['', -4, 8, 24, -24, 4, 8, -24, -48, 2, 4, 24, -24]",1401840,11952,mouselab-mdp,False
60fd5adad03767cff6dddda8,30,"[2985, 3605, 4286]","['up', 'up', 'left']",test,"['0', '0', '1', '2', '4']","{'click': {'state': {'target': ['4'], 'time': [1999]}, 'edge': {'target': [], 'time': []}}, 'mouseover': {'state': {'target': ['2', '4', '2'], 'time': [1529, 1762, 2376]}, 'edge': {'target': [], 'time': []}}, 'mouseout': {'state': {'target': ['0', '2', '4', '2'], 'time': [1506, 1568, 2359, 2407]}, 'edge': {'target': [], 'time': []}}}","[-2, 4, 48]","[1813, 119, 122]",0,0,54,"[None, None, None]","['', -2, 4, -24, 48, 4, -8, 48, -48, 2, -8, 48, 24]",1413011,10954,mouselab-mdp,False
5c629b836e03a00001d47bdd,1,"[6388, 7219, 8353]","['left', 'left', 'up']",begin,"['0', '0', '9', '10', '11']","{'click': {'state': {'target': ['1'], 'time': [4910]}, 'edge': {'target': [], 'time': []}}, 'mouseover': {'state': {'target': ['1'], 'time': [3893]}, 'edge': {'target': [], 'time': []}}, 'mouseout': {'state': {'target': ['0', '1'], 'time': [3493, 5176]}, 'edge': {'target': [], 'time': []}}}","[-2, -4, 48]","[3605, 324, 642]",0,0,46,"[None, None, None]","['', -4, 8, -24, -48, 2, 8, -48, -24, -2, -4, 48, -48]",1433616,13437,mouselab-mdp,False
5c629b836e03a00001d47bdd,2,"[4489, 5519, 6332]","['right', 'right', 'down']",begin,"['0', '0', '5', '6', '8']","{'click': {'state': {'target': ['5'], 'time': [3036]}, 'edge': {'target': [], 'time': []}}, 'mouseover': {'state': {'target': ['5'], 'time': [2825]}, 'edge': {'target': [], 'time': []}}, 'mouseout': {'state': {'target': ['0', '0', '5'], 'time': [1089, 2709, 3309]}, 'edge': {'target': [], 'time': []}}}","[2, -8, 48]","[3073, 524, 303]",0,0,46,"[None, None, None]","['', -4, 8, -24, 48, 2, -8, 24, 48, 2, -8, -24, -48]",1444701,11040,mouselab-mdp,False
5c629b836e03a00001d47bdd,3,"[3401, 4195, 4965]","['left', 'left', 'up']",begin,"['0', '0', '9', '10', '11']","{'click': {'state': {'target': ['9'], 'time': [2319]}, 'edge': {'target': [], 'time': []}}, 'mouseover': {'state': {'target': ['0', '9'], 'time': [1863, 2075]}, 'edge': {'target': [], 'time': []}}, 'mouseout': {'state': {'target': ['9', '0', '9'], 'time': [892, 2025, 2542]}, 'edge': {'target': [], 'time': []}}}","[4, -4, 24]","[1959, 283, 253]",0,0,28,"[None, None, None]","['', -4, 4, -24, -24, -4, -8, 24, 48, 4, -4, 24, 48]",1457743,12998,mouselab-mdp,False
5c629b836e03a00001d47bdd,4,"[3687, 4568, 5465]","['right', 'right', 'up']",begin,"['0', '0', '5', '6', '7']","{'click': {'state': {'target': ['1'], 'time': [1899]}, 'edge': {'target': [], 'time': []}}, 'mouseover': {'state': {'target': ['1', '0'], 'time': [1713, 2196]}, 'edge': {'target': [], 'time': []}}, 'mouseout': {'state': {'target': ['0', '1', '0'], 'time': [1580, 2129, 2212]}, 'edge': {'target': [], 'time': []}}}","[-2, 8, -48]","[2491, 371, 386]",0,0,-38,"[None, None, None]","['', -4, 8, 24, 24, -2, 8, -48, 48, 4, -8, 48, -48]",1467143,9353,mouselab-mdp,False
5c629b836e03a00001d47bdd,5,"[6346, 7173, 8585]","['up', 'up', 'left']",begin,"['0', '0', '1', '2', '4']","{'click': {'state': {'target': ['9'], 'time': [4929]}, 'edge': {'target': [], 'time': []}}, 'mouseover': {'state': {'target': ['9'], 'time': [2843]}, 'edge': {'target': [], 'time': []}}, 'mouseout': {'state': {'target': ['0', '9'], 'time': [2810, 5210]}, 'edge': {'target': [], 'time': []}}}","[-4, -4, 48]","[5060, 312, 908]",0,0,44,"[None, None, None]","['', -4, -4, -48, 48, -4, -8, -24, -48, -2, 8, 48, 24]",1477985,10794,mouselab-mdp,False
5c629b836e03a00001d47bdd,6,"[4169, 4829, 5410]","['right', 'right', 'down']",begin,"['0', '0', '5', '6', '8']","{'click': {'state': {'target': ['1'], 'time': [3022]}, 'edge': {'target': [], 'time': []}}, 'mouseover': {'state': {'target': ['5', '1', '0'], 'time': [2100, 2768, 3252]}, 'edge': {'target': [], 'time': []}}, 'mouseout': {'state': {'target': ['0', '5', '1'], 'time': [1654, 2685, 3184]}, 'edge': {'target': [], 'time': []}}}","[4, -8, 24]","[2884, 145, 75]",0,0,24,"[None, None, None]","['', -2, -8, -24, -48, 4, -8, 48, 24, 2, 4, -48, -48]",1489415,11382,mouselab-mdp,False
5c629b836e03a00001d47bdd,7,"[4887, 5594, 6503]","['right', 'right', 'down']",begin,"['0', '0', '5', '6', '8']","{'click': {'state': {'target': ['1'], 'time': [3073]}, 'edge': {'target': [], 'time': []}}, 'mouseover': {'state': {'target': ['0', '5', '1', '0'], 'time': [1619, 1918, 2702, 3351]}, 'edge': {'target': [], 'time': []}}, 'mouseout': {'state': {'target': ['0', '0', '5', '1', '0'], 'time': [918, 1752, 2568, 3302, 3435]}, 'edge': {'target': [], 'time': []}}}","[2, 4, -24]","[3832, 209, 417]",0,0,-14,"[None, None, None]","['', -2, -8, 48, 24, 2, 4, 24, -24, -2, -4, 48, -48]",1500664,11198,mouselab-mdp,False
5c629b836e03a00001d47bdd,8,"[3127, 3779, 4440]","['up', 'up', 'left']",begin,"['0', '0', '1', '2', '4']","{'click': {'state': {'target': ['1'], 'time': [2069]}, 'edge': {'target': [], 'time': []}}, 'mouseover': {'state': {'target': ['1', '0'], 'time': [1867, 2384]}, 'edge': {'target': [], 'time': []}}, 'mouseout': {'state': {'target': ['0', '1'], 'time': [1733, 2267]}, 'edge': {'target': [], 'time': []}}}","[2, 8, 24]","[1967, 146, 155]",0,0,38,"[None, None, None]","['', 2, 8, -48, 24, -4, 8, 48, -24, 2, 8, 24, 24]",1512290,11573,mouselab-mdp,False
5c629b836e03a00001d47bdd,9,"[4879, 5529, 6614]","['right', 'right', 'up']",begin,"['0', '0', '5', '6', '7']","{'click': {'state': {'target': ['1'], 'time': [3068]}, 'edge': {'target': [], 'time': []}}, 'mouseover': {'state': {'target': ['5', '1', '0'], 'time': [2026, 2809, 3392]}, 'edge': {'target': [], 'time': []}}, 'mouseout': {'state': {'target': ['0', '5', '1', '0'], 'time': [1909, 2758, 3309, 3459]}, 'edge': {'target': [], 'time': []}}}","[4, 8, 24]","[3572, 153, 571]",0,0,40,"[None, None, None]","['', -2, -4, -48, -48, 4, 8, 24, -48, 4, -8, 24, 24]",1522989,10648,mouselab-mdp,False
5c629b836e03a00001d47bdd,10,"[3928, 4617, 5497]","['right', 'right', 'down']",begin,"['0', '0', '5', '6', '8']","{'click': {'state': {'target': ['1'], 'time': [2116]}, 'edge': {'target': [], 'time': []}}, 'mouseover': {'state': {'target': ['0', '1', '0'], 'time': [1345, 1513, 2512]}, 'edge': {'target': [], 'time': []}}, 'mouseout': {'state': {'target': ['0', '0', '1'], 'time': [1212, 1429, 2378]}, 'edge': {'target': [], 'time': []}}}","[-4, 8, 48]","[2937, 189, 367]",0,0,56,"[None, None, None]","['', -2, -4, -24, 48, -4, 8, 48, 48, 2, 8, -48, -24]",1535475,12438,mouselab-mdp,False
5c629b836e03a00001d47bdd,11,"[2723, 3334, 4041]","['up', 'up', 'right']",test,"['0', '0', '1', '2', '3']","{'click': {'state': {'target': ['1'], 'time': [1788]}, 'edge': {'target': [], 'time': []}}, 'mouseover': {'state': {'target': ['1', '0'], 'time': [1367, 2001]}, 'edge': {'target': [], 'time': []}}, 'mouseout': {'state': {'target': ['0', '1', '0'], 'time': [1251, 1917, 8368]}, 'edge': {'target': [], 'time': []}}}","[2, -4, -24]","[1847, 113, 190]",0,0,-22,"[None, None, None]","['', 2, -4, -24, -48, -2, 8, -24, 48, -2, 8, 24, -48]",1545417,9887,mouselab-mdp,False
5c629b836e03a00001d47bdd,12,"[3532, 4171, 4921]","['left', 'left', 'down']",test,"['0', '0', '9', '10', '12']","{'click': {'state': {'target': ['1'], 'time': [1915]}, 'edge': {'target': [], 'time': []}}, 'mouseover': {'state': {'target': ['0', '1'], 'time': [1479, 1697]}, 'edge': {'target': [], 'time': []}}, 'mouseout': {'state': {'target': ['0', '0', '1', '0', '11'], 'time': [1262, 1545, 2146, 5795, 6929]}, 'edge': {'target': [], 'time': []}}}","[-4, 4, 24]","[2519, 141, 257]",0,0,28,"[None, None, None]","['', -4, -4, -24, 24, 4, 4, -24, -24, -4, 4, 24, 24]",1556758,11290,mouselab-mdp,False
5c629b836e03a00001d47bdd,13,"[3314, 3931, 4540]","['up', 'up', 'right']",test,"['0', '0', '1', '2', '3']","{'click': {'state': {'target': ['1'], 'time': [2248]}, 'edge': {'target': [], 'time': []}}, 'mouseover': {'state': {'target': ['1'], 'time': [1938]}, 'edge': {'target': [], 'time': []}}, 'mouseout': {'state': {'target': ['2', '2', '1', '0', '1'], 'time': [638, 721, 821, 1671, 2521]}, 'edge': {'target': [], 'time': []}}}","[4, -8, -48]","[2205, 125, 101]",0,0,-48,"[None, None, None]","['', 4, -8, -48, 24, 4, 4, -24, -24, 2, 4, -48, 24]",1567079,10271,mouselab-mdp,False
5c629b836e03a00001d47bdd,14,"[4203, 4806, 5816]","['right', 'right', 'down']",test,"['0', '0', '5', '6', '8']","{'click': {'state': {'target': ['1'], 'time': [2832]}, 'edge': {'target': [], 'time': []}}, 'mouseover': {'state': {'target': ['0', '1', '0'], 'time': [1732, 2415, 3183]}, 'edge': {'target': [], 'time': []}}, 'mouseout': {'state': {'target': ['1', '0', '0', '1', '0'], 'time': [698, 1148, 2316, 3099, 3231]}, 'edge': {'target': [], 'time': []}}}","[2, 8, 48]","[2941, 90, 500]",0,0,62,"[None, None, None]","['', -2, 4, 48, -24, 2, 8, 24, 48, 2, 4, -24, -48]",1579462,12332,mouselab-mdp,False
5c629b836e03a00001d47bdd,15,"[3294, 3931, 4536]","['up', 'up', 'left']",test,"['0', '0', '1', '2', '4']","{'click': {'state': {'target': ['1'], 'time': [2264]}, 'edge': {'target': [], 'time': []}}, 'mouseover': {'state': {'target': ['0', '1'], 'time': [1581, 1932]}, 'edge': {'target': [], 'time': []}}, 'mouseout': {'state': {'target': ['0', '0', '1'], 'time': [1382, 1798, 2532]}, 'edge': {'target': [], 'time': []}}}","[4, -8, -24]","[2194, 132, 89]",0,0,-24,"[None, None, None]","['', 4, -8, 48, -24, 4, -4, -48, -48, 4, -4, 24, 24]",1589839,10326,mouselab-mdp,False
5c629b836e03a00001d47bdd,16,"[4136, 4739, 5364]","['right', 'right', 'down']",test,"['0', '0', '5', '6', '8']","{'click': {'state': {'target': ['1'], 'time': [2930]}, 'edge': {'target': [], 'time': []}}, 'mouseover': {'state': {'target': ['0', '1', '1'], 'time': [1416, 2167, 2617]}, 'edge': {'target': [], 'time': []}}, 'mouseout': {'state': {'target': ['0', '1', '1'], 'time': [2116, 2317, 3250]}, 'edge': {'target': [], 'time': []}}}","[-2, 8, -48]","[3097, 90, 113]",0,0,-38,"[None, None, None]","['', -4, 4, 24, 24, -2, 8, 24, -48, 4, -8, -24, -48]",1600536,10641,mouselab-mdp,False
5c629b836e03a00001d47bdd,17,"[2475, 3098, 3672]","['up', 'up', 'right']",test,"['0', '0', '1', '2', '3']","{'click': {'state': {'target': ['1'], 'time': [1523]}, 'edge': {'target': [], 'time': []}}, 'mouseover': {'state': {'target': ['0', '1'], 'time': [952, 1338]}, 'edge': {'target': [], 'time': []}}, 'mouseout': {'state': {'target': ['0', '1', '0'], 'time': [1239, 1756, 9171]}, 'edge': {'target': [], 'time': []}}}","[2, 8, 24]","[1583, 125, 66]",0,0,38,"[None, None, None]","['', 2, 8, 24, -48, 4, 8, 24, 24, 4, -8, 48, 48]",1612104,11515,mouselab-mdp,False
5c629b836e03a00001d47bdd,18,"[8511, 9082, 9704]","['up', 'up', 'left']",test,"['0', '0', '1', '2', '4']","{'click': {'state': {'target': ['1'], 'time': [7318]}, 'edge': {'target': [], 'time': []}}, 'mouseover': {'state': {'target': ['1'], 'time': [6870]}, 'edge': {'target': [], 'time': []}}, 'mouseout': {'state': {'target': ['0', '1', '0'], 'time': [6521, 7553, 12820]}, 'edge': {'target': [], 'time': []}}}","[2, 4, 48]","[2256, 61, 117]",0,0,58,"[None, None, None]","['', 2, 4, 24, 48, -2, 8, 24, -24, -4, -4, 48, 48]",1627435,15279,mouselab-mdp,False
5c629b836e03a00001d47bdd,19,"[3162, 3761, 4350]","['up', 'up', 'left']",test,"['0', '0', '1', '2', '4']","{'click': {'state': {'target': ['1'], 'time': [2072]}, 'edge': {'target': [], 'time': []}}, 'mouseover': {'state': {'target': ['0', '0', '1', '0'], 'time': [1205, 1399, 1837, 2371]}, 'edge': {'target': [], 'time': []}}, 'mouseout': {'state': {'target': ['0', '0', '0', '1', '0'], 'time': [988, 1327, 1771, 2305, 2404]}, 'edge': {'target': [], 'time': []}}}","[2, 8, -48]","[2103, 89, 95]",0,0,-34,"[None, None, None]","['', 2, 8, 24, -48, 4, 8, 24, 48, 2, -8, -24, 24]",1637817,10329,mouselab-mdp,False
5c629b836e03a00001d47bdd,20,"[3617, 4163, 4763]","['right', 'right', 'down']",test,"['0', '0', '5', '6', '8']","{'click': {'state': {'target': ['1'], 'time': [1740]}, 'edge': {'target': [], 'time': []}}, 'mouseover': {'state': {'target': ['0', '0', '1'], 'time': [1122, 1306, 1539]}, 'edge': {'target': [], 'time': []}}, 'mouseout': {'state': {'target': ['0', '0', '0', '1', '9'], 'time': [905, 1172, 1355, 1955, 6856]}, 'edge': {'target': [], 'time': []}}}","[2, 4, 24]","[2649, 57, 91]",0,0,34,"[None, None, None]","['', -2, 8, 48, 48, 2, 4, -48, 24, -4, -8, 48, 24]",1648916,11046,mouselab-mdp,False
5c629b836e03a00001d47bdd,21,"[3196, 3814, 4706]","['left', 'left', 'up']",test,"['0', '0', '9', '10', '11']","{'click': {'state': {'target': ['1'], 'time': [1937]}, 'edge': {'target': [], 'time': []}}, 'mouseover': {'state': {'target': ['0', '1'], 'time': [1641, 1723]}, 'edge': {'target': [], 'time': []}}, 'mouseout': {'state': {'target': ['0', '0', '1'], 'time': [1440, 1657, 2142]}, 'edge': {'target': [], 'time': []}}}","[-2, 8, -48]","[1884, 105, 397]",0,0,-38,"[None, None, None]","['', -4, 8, 24, -24, -2, 4, -24, 48, -2, 8, -48, -24]",1658880,9914,mouselab-mdp,False
5c629b836e03a00001d47bdd,22,"[3746, 4383, 5631]","['right', 'right', 'up']",test,"['0', '0', '5', '6', '7']","{'click': {'state': {'target': ['1'], 'time': [2635]}, 'edge': {'target': [], 'time': []}}, 'mouseover': {'state': {'target': ['0', '1', '0'], 'time': [1957, 2440, 2990]}, 'edge': {'target': [], 'time': []}}, 'mouseout': {'state': {'target': ['0', '0', '1', '0'], 'time': [1774, 2114, 2924, 9106]}, 'edge': {'target': [], 'time': []}}}","[-2, -8, -48]","[2291, 125, 740]",0,0,-54,"[None, None, None]","['', -2, -4, -24, 48, -2, -8, -48, -24, 4, 8, 48, 24]",1669586,10653,mouselab-mdp,False
5c629b836e03a00001d47bdd,23,"[3110, 3743, 4331]","['right', 'right', 'up']",test,"['0', '0', '5', '6', '7']","{'click': {'state': {'target': ['1'], 'time': [2143]}, 'edge': {'target': [], 'time': []}}, 'mouseover': {'state': {'target': ['1'], 'time': [1883]}, 'edge': {'target': [], 'time': []}}, 'mouseout': {'state': {'target': ['7', '0', '0', '1', '6'], 'time': [832, 1015, 1791, 2466, 7716]}, 'edge': {'target': [], 'time': []}}}","[2, -4, 24]","[1678, 128, 82]",0,0,26,"[None, None, None]","['', -4, 8, 48, -48, 2, -4, 24, -24, -2, 4, -24, -24]",1681162,11521,mouselab-mdp,False
5c629b836e03a00001d47bdd,24,"[3671, 4288, 4815]","['up', 'up', 'left']",test,"['0', '0', '1', '2', '4']","{'click': {'state': {'target': ['1'], 'time': [2813]}, 'edge': {'target': [], 'time': []}}, 'mouseover': {'state': {'target': ['0', '1'], 'time': [1479, 2662]}, 'edge': {'target': [], 'time': []}}, 'mouseout': {'state': {'target': ['6', '5', '0', '1'], 'time': [861, 961, 2462, 6694]}, 'edge': {'target': [], 'time': []}}}","[4, 4, -24]","[2380, 109, 19]",0,0,-12,"[None, None, None]","['', 4, 4, 48, -24, -4, -8, 24, -24, 2, -8, -24, 24]",1692677,11467,mouselab-mdp,False
5c629b836e03a00001d47bdd,25,"[4964, 5558, 6100]","['up', 'up', 'left']",test,"['0', '0', '1', '2', '4']","{'click': {'state': {'target': ['1'], 'time': [3893]}, 'edge': {'target': [], 'time': []}}, 'mouseover': {'state': {'target': ['1'], 'time': [3692]}, 'edge': {'target': [], 'time': []}}, 'mouseout': {'state': {'target': ['0', '1', '0'], 'time': [2493, 4209, 11709]}, 'edge': {'target': [], 'time': []}}}","[4, 4, 24]","[2787, 81, 25]",0,0,36,"[None, None, None]","['', 4, 4, 24, 24, 4, -4, 48, 48, 4, 4, 24, -48]",1705171,12442,mouselab-mdp,False
5c629b836e03a00001d47bdd,26,"[3132, 3723, 4297]","['right', 'right', 'down']",test,"['0', '0', '5', '6', '8']","{'click': {'state': {'target': ['1'], 'time': [2255]}, 'edge': {'target': [], 'time': []}}, 'mouseover': {'state': {'target': ['1'], 'time': [1808]}, 'edge': {'target': [], 'time': []}}, 'mouseout': {'state': {'target': ['0', '1'], 'time': [1775, 9141]}, 'edge': {'target': [], 'time': []}}}","[-2, 8, 24]","[1720, 97, 57]",0,0,34,"[None, None, None]","['', -4, 4, -24, 48, -2, 8, -48, 24, 2, 4, 48, -48]",1716631,11401,mouselab-mdp,False
5c629b836e03a00001d47bdd,27,"[3228, 3782, 4672]","['right', 'right', 'up']",test,"['0', '0', '5', '6', '7']","{'click': {'state': {'target': ['1'], 'time': [2358]}, 'edge': {'target': [], 'time': []}}, 'mouseover': {'state': {'target': ['1'], 'time': [1913]}, 'edge': {'target': [], 'time': []}}, 'mouseout': {'state': {'target': ['0', '1', '1'], 'time': [1845, 2563, 5829]}, 'edge': {'target': [], 'time': []}}}","[4, -8, 48]","[1961, 36, 359]",0,0,48,"[None, None, None]","['', -4, -8, -48, -48, 4, -8, 48, 48, 2, 8, 48, 24]",1727945,11255,mouselab-mdp,False
5c629b836e03a00001d47bdd,28,"[3645, 4250, 5222]","['up', 'up', 'right']",test,"['0', '0', '1', '2', '3']","{'click': {'state': {'target': ['1'], 'time': [2642]}, 'edge': {'target': [], 'time': []}}, 'mouseover': {'state': {'target': ['1'], 'time': [2440]}, 'edge': {'target': [], 'time': []}}, 'mouseout': {'state': {'target': ['3', '7', '0', '1', '0'], 'time': [1139, 1405, 2130, 11456, 11522]}, 'edge': {'target': [], 'time': []}}}","[2, 4, 48]","[1864, 109, 466]",0,0,58,"[None, None, None]","['', 2, 4, 48, -24, 2, -8, -24, -24, 2, -8, -24, -48]",1740364,12367,mouselab-mdp,False
5c629b836e03a00001d47bdd,29,"[4043, 4640, 5193]","['right', 'right', 'up']",test,"['0', '0', '5', '6', '7']","{'click': {'state': {'target': ['1'], 'time': [2631]}, 'edge': {'target': [], 'time': []}}, 'mouseover': {'state': {'target': ['0', '1'], 'time': [1276, 2177]}, 'edge': {'target': [], 'time': []}}, 'mouseout': {'state': {'target': ['0', '1'], 'time': [1461, 2861]}, 'edge': {'target': [], 'time': []}}}","[2, 4, -24]","[2788, 79, 61]",0,0,-14,"[None, None, None]","['', -4, -4, -24, 48, 2, 4, -24, -48, -2, 4, 24, 24]",1751808,11382,mouselab-mdp,False
5c629b836e03a00001d47bdd,30,"[3176, 3801, 4487]","['right', 'right', 'up']",test,"['0', '0', '5', '6', '7']","{'click': {'state': {'target': ['1'], 'time': [1640]}, 'edge': {'target': [], 'time': []}}, 'mouseover': {'state': {'target': ['1'], 'time': [1439]}, 'edge': {'target': [], 'time': []}}, 'mouseout': {'state': {'target': ['0', '0', '1', '1'], 'time': [743, 1352, 1939, 8189]}, 'edge': {'target': [], 'time': []}}}","[-4, -8, -24]","[2194, 111, 182]",0,0,-32,"[None, None, None]","['', -4, -4, -24, 48, -4, -8, -24, 48, 2, 4, 48, 48]",1762973,11110,mouselab-mdp,False
608c0288bce208aa19b5e302,1,"[4943, 5503, 6119]","['left', 'left', 'down']",begin,"['0', '0', '9', '10', '12']","{'click': {'state': {'target': ['5', '1', '9', '10', '11', '12'], 'time': [1504, 2032, 2560, 3136, 3608, 4328]}, 'edge': {'target': [], 'time': []}}, 'mouseover': {'state': {'target': ['5', '1', '9', '10', '11', '12'], 'time': [1327, 1861, 2344, 2811, 3428, 4194]}, 'edge': {'target': [], 'time': []}}, 'mouseout': {'state': {'target': ['1', '5', '1', '9', '10', '11', '10', '12'], 'time': [677, 1794, 2261, 2744, 3394, 3761, 4144, 4577]}, 'edge': {'target': [], 'time': []}}}","[4, 4, 48]","[3904, 40, 106]",0,0,55,"[None, None, None]","['', -2, -8, -24, -48, -2, -4, 48, -48, 4, 4, -48, 48]",1057050,11455,mouselab-mdp,False
608c0288bce208aa19b5e302,2,"[7989, 8701, 9365]","['left', 'left', 'down']",begin,"['0', '0', '9', '10', '12']","{'click': {'state': {'target': ['5', '6', '1', '2', '9', '10', '12', '8'], 'time': [1358, 2454, 3526, 3990, 4654, 5206, 6062, 6877]}, 'edge': {'target': [], 'time': []}}, 'mouseover': {'state': {'target': ['5', '6', '1', '2', '9', '10', '10', '12', '8'], 'time': [1239, 2372, 3356, 3823, 4422, 4889, 5072, 5706, 6589]}, 'edge': {'target': [], 'time': []}}, 'mouseout': {'state': {'target': ['0', '5', '5', '6', '6', '1', '2', '1', '9', '10', '10', '12', '8'], 'time': [672, 1589, 2256, 2621, 2906, 3789, 4306, 4372, 4855, 4940, 5456, 6439, 7356]}, 'edge': {'target': [], 'time': []}}}","[4, -4, 24]","[7161, 210, 173]",0,0,21,"[None, None, None]","['', 4, -8, 48, -24, 4, -4, -48, -48, 4, -4, 24, 24]",1068025,10909,mouselab-mdp,False
608c0288bce208aa19b5e302,3,"[12142, 12710, 13438]","['right', 'right', 'down']",begin,"['0', '0', '5', '6', '8']","{'click': {'state': {'target': ['5', '6', '1', '2', '3', '4', '9', '10', '12', '11', '7', '8'], 'time': [1264, 2111, 3516, 3950, 4799, 5486, 6126, 6599, 7583, 9439, 10501, 11076]}, 'edge': {'target': [], 'time': []}}, 'mouseover': {'state': {'target': ['5', '1', '6', '8', '1', '2', '3', '4', '9', '10', '12', '11', '7', '8'], 'time': [1114, 1714, 1947, 2297, 3363, 3831, 4681, 5414, 5948, 6431, 7064, 9331, 10325, 10896]}, 'edge': {'target': [], 'time': []}}, 'mouseout': {'state': {'target': ['0', '5', '1', '5', '6', '8', '5', '1', '2', '3', '2', '4', '9', '10', '12', '9', '11', '7', '6', '8'], 'time': [613, 1497, 1820, 1914, 2246, 3279, 3329, 3781, 4464, 5147, 5281, 5764, 6381, 6947, 7747, 9096, 9881, 10646, 10829, 11331]}, 'edge': {'target': [], 'time': []}}}","[2, -4, 24]","[11415, 77, 238]",0,0,15,"[None, None, None]","['', 2, 8, -48, -24, 2, -4, -48, 24, 2, -4, -24, -24]",1083289,15197,mouselab-mdp,False
608c0288bce208aa19b5e302,4,"[2918, 3494, 4118]","['right', 'right', 'down']",begin,"['0', '0', '5', '6', '8']","{'click': {'state': {'target': ['5', '6', '8'], 'time': [1256, 1863, 2384]}, 'edge': {'target': [], 'time': []}}, 'mouseover': {'state': {'target': ['5', '6', '8'], 'time': [1109, 1709, 2242]}, 'edge': {'target': [], 'time': []}}, 'mouseout': {'state': {'target': ['0', '5', '6', '8'], 'time': [1092, 1675, 2159, 3091]}, 'edge': {'target': [], 'time': []}}}","[2, 4, 48]","[2145, 82, 90]",0,0,56,"[None, None, None]","['', 4, -8, 24, 48, 2, 4, 48, 48, 2, 8, -48, -48]",1092769,9406,mouselab-mdp,False
608c0288bce208aa19b5e302,5,"[4763, 5363, 5963]","['up', 'up', 'left']",begin,"['0', '0', '1', '2', '4']","{'click': {'state': {'target': ['5', '1', '2', '3', '4'], 'time': [979, 1739, 2420, 3515, 4028]}, 'edge': {'target': [], 'time': []}}, 'mouseover': {'state': {'target': ['5', '1', '9', '2', '3', '4'], 'time': [809, 1476, 2026, 2259, 3209, 3843]}, 'edge': {'target': [], 'time': []}}, 'mouseout': {'state': {'target': ['0', '5', '5', '1', '9', '2', '3', '2', '4', '9'], 'time': [792, 1226, 1342, 1908, 2176, 2709, 3793, 3826, 4293, 7093]}, 'edge': {'target': [], 'time': []}}}","[2, 8, 24]","[4123, 102, 102]",0,0,34,"[None, None, None]","['', 2, 8, -48, 24, -4, 8, 48, -24, 2, 8, 24, 24]",1102129,9283,mouselab-mdp,False
608c0288bce208aa19b5e302,6,"[8089, 8761, 9417]","['left', 'left', 'down']",begin,"['0', '0', '9', '10', '12']","{'click': {'state': {'target': ['5', '6', '8', '7', '1', '9', '10', '12'], 'time': [1450, 2002, 2410, 3306, 3922, 4626, 6290, 6930]}, 'edge': {'target': [], 'time': []}}, 'mouseover': {'state': {'target': ['5', '6', '8', '7', '7', '1', '9', '10', '12'], 'time': [1348, 1898, 2348, 2864, 3198, 3781, 4430, 5120, 6765]}, 'edge': {'target': [], 'time': []}}, 'mouseout': {'state': {'target': ['0', '5', '6', '8', '6', '7', '7', '1', '1', '9', '10', '12', '10', '12'], 'time': [1315, 1832, 2181, 2665, 2781, 2931, 3565, 4198, 4382, 4848, 6694, 7163, 7998, 10513]}, 'edge': {'target': [], 'time': []}}}","[-2, 4, 24]","[7023, 146, 167]",0,0,23,"[None, None, None]","['', -4, -4, -24, 48, 2, 4, -24, -48, -2, 4, 24, 24]",1112913,10705,mouselab-mdp,False
608c0288bce208aa19b5e302,7,"[4465, 5017, 5609]","['up', 'up', 'right']",begin,"['0', '0', '1', '2', '3']","{'click': {'state': {'target': ['5', '6', '1', '2', '3'], 'time': [1234, 1706, 2802, 3258, 3754]}, 'edge': {'target': [], 'time': []}}, 'mouseover': {'state': {'target': ['5', '6', '8', '1', '2', '3'], 'time': [1089, 1606, 1904, 2712, 3189, 3605]}, 'edge': {'target': [], 'time': []}}, 'mouseout': {'state': {'target': ['0', '5', '6', '8', '5', '1', '2', '3', '2', '2', '7'], 'time': [1055, 1572, 1871, 2122, 2222, 3139, 3572, 3955, 4112, 4605, 6322]}, 'edge': {'target': [], 'time': []}}}","[4, 8, 24]","[3539, 60, 85]",0,0,36,"[None, None, None]","['', 4, 8, 24, 24, 2, -4, 48, -24, -4, 8, -24, 24]",1123689,10705,mouselab-mdp,False
608c0288bce208aa19b5e302,8,"[2428, 3027, 3643]","['right', 'right', 'down']",begin,"['0', '0', '5', '6', '8']","{'click': {'state': {'target': ['5', '6', '8'], 'time': [1052, 1556, 1962]}, 'edge': {'target': [], 'time': []}}, 'mouseover': {'state': {'target': ['5', '6', '8'], 'time': [965, 1415, 1865]}, 'edge': {'target': [], 'time': []}}, 'mouseout': {'state': {'target': ['6', '5', '5', '6', '8'], 'time': [281, 364, 1348, 1815, 2281]}, 'edge': {'target': [], 'time': []}}}","[2, 8, 48]","[1860, 93, 109]",0,0,60,"[None, None, None]","['', -4, -8, -24, 24, 2, 8, 24, 48, 2, 4, 24, -48]",1132873,9115,mouselab-mdp,False
608c0288bce208aa19b5e302,9,"[4089, 4688, 5256]","['right', 'right', 'up']",begin,"['0', '0', '5', '6', '7']","{'click': {'state': {'target': ['5', '6', '8', '7'], 'time': [1553, 2010, 2801, 3377]}, 'edge': {'target': [], 'time': []}}, 'mouseover': {'state': {'target': ['0', '5', '5', '6', '8', '7'], 'time': [1203, 1236, 1453, 1903, 2597, 3236]}, 'edge': {'target': [], 'time': []}}, 'mouseout': {'state': {'target': ['8', '5', '0', '5', '5', '6', '8', '6', '7'], 'time': [385, 502, 1219, 1268, 1819, 2318, 3019, 3202, 3703]}, 'edge': {'target': [], 'time': []}}}","[2, 4, 24]","[2996, 84, 67]",0,0,31,"[None, None, None]","['', 2, 4, 48, -48, 2, 4, 24, -24, 2, -4, -24, -48]",1143969,11032,mouselab-mdp,False
608c0288bce208aa19b5e302,10,"[11409, 12041, 12721]","['left', 'left', 'up']",begin,"['0', '0', '9', '10', '11']","{'click': {'state': {'target': ['5', '1', '9', '10', '6', '8', '7', '2', '3', '4', '11', '12'], 'time': [922, 1662, 2234, 2739, 4522, 5585, 6185, 6890, 8089, 8650, 9370, 10450]}, 'edge': {'target': [], 'time': []}}, 'mouseover': {'state': {'target': ['5', '6', '1', '9', '10', '12', '6', '7', '8', '7', '2', '3', '4', '11', '11', '12'], 'time': [682, 1116, 1582, 2100, 2583, 3400, 4367, 5254, 5500, 5983, 6716, 7966, 8500, 9083, 9250, 10050]}, 'edge': {'target': [], 'time': []}}, 'mouseout': {'state': {'target': ['8', '5', '6', '5', '1', '1', '9', '10', '12', '6', '7', '6', '8', '7', '6', '2', '3', '2', '4', '11', '11', '10', '12'], 'time': [316, 1032, 1283, 1333, 1950, 2033, 2551, 3334, 3919, 4750, 5400, 5450, 5800, 6332, 6465, 7843, 8333, 8450, 8882, 9100, 9598, 9966, 10599]}, 'edge': {'target': [], 'time': []}}}","[4, -8, 24]","[10832, 139, 186]",0,0,13,"[None, None, None]","['', -4, -4, -24, -48, -4, 8, -24, -48, 4, -8, 24, -24]",1157945,13904,mouselab-mdp,False
608c0288bce208aa19b5e302,11,"[2602, 3154, 3746]","['right', 'right', 'down']",test,"['0', '0', '5', '6', '8']","{'click': {'state': {'target': ['5', '6', '8'], 'time': [1282, 1730, 2090]}, 'edge': {'target': [], 'time': []}}, 'mouseover': {'state': {'target': ['5', '6', '8'], 'time': [1191, 1557, 1974]}, 'edge': {'target': [], 'time': []}}, 'mouseout': {'state': {'target': ['0', '5', '5', '6', '8', '8'], 'time': [456, 639, 1524, 1906, 2356, 3973]}, 'edge': {'target': [], 'time': []}}}","[2, 4, 48]","[1645, 61, 103]",0,0,56,"[None, None, None]","['', -4, 8, -24, -24, 2, 4, 48, 48, -2, 4, 24, -48]",1168297,10297,mouselab-mdp,False
608c0288bce208aa19b5e302,12,"[4603, 5188, 5763]","['right', 'right', 'down']",test,"['0', '0', '5', '6', '8']","{'click': {'state': {'target': ['5', '1', '9', '6', '8'], 'time': [1453, 2173, 2684, 3452, 3940]}, 'edge': {'target': [], 'time': []}}, 'mouseover': {'state': {'target': ['0', '5', '1', '9', '6', '8'], 'time': [1314, 1358, 2008, 2575, 3358, 3758]}, 'edge': {'target': [], 'time': []}}, 'mouseout': {'state': {'target': ['0', '0', '5', '5', '1', '9', '6', '8'], 'time': [1210, 1341, 1658, 1808, 2541, 3041, 3607, 4858]}, 'edge': {'target': [], 'time': []}}}","[-2, 4, 24]","[3530, 94, 89]",0,0,26,"[None, None, None]","['', -2, 4, -24, -24, -2, 4, 48, 24, -4, -8, 24, -48]",1179121,10756,mouselab-mdp,False
608c0288bce208aa19b5e302,13,"[10208, 10807, 11495]","['left', 'left', 'up']",test,"['0', '0', '9', '10', '11']","{'click': {'state': {'target': ['5', '6', '8', '7', '1', '2', '3', '4', '9', '10', '11', '12'], 'time': [1656, 2120, 2448, 3256, 3856, 4280, 4656, 6016, 6760, 7216, 8688, 9272]}, 'edge': {'target': [], 'time': []}}, 'mouseover': {'state': {'target': ['5', '6', '8', '7', '7', '1', '2', '3', '4', '9', '4', '9', '10', '11', '12'], 'time': [1479, 2030, 2330, 2999, 3213, 3813, 4163, 4497, 5013, 5347, 5713, 6345, 7097, 7764, 9113]}, 'edge': {'target': [], 'time': []}}, 'mouseout': {'state': {'target': ['0', '5', '6', '8', '6', '7', '7', '1', '2', '3', '2', '4', '9', '4', '9', '10', '11', '10', '12'], 'time': [1163, 1947, 2280, 2947, 2997, 3047, 3613, 4130, 4430, 4863, 4947, 5263, 5630, 6196, 7014, 7730, 8863, 9080, 9445]}, 'edge': {'target': [], 'time': []}}}","[-4, 4, 24]","[8946, 108, 196]",0,0,17,"[None, None, None]","['', -4, -4, -24, 24, 4, 4, -24, -24, -4, 4, 24, 24]",1192049,12855,mouselab-mdp,False
608c0288bce208aa19b5e302,14,"[3120, 3816, 4417]","['right', 'right', 'down']",test,"['0', '0', '5', '6', '8']","{'click': {'state': {'target': ['5', '6', '8'], 'time': [1802, 2304, 2689]}, 'edge': {'target': [], 'time': []}}, 'mouseover': {'state': {'target': ['5', '6', '8'], 'time': [1662, 2229, 2578]}, 'edge': {'target': [], 'time': []}}, 'mouseout': {'state': {'target': ['0', '5', '6', '8'], 'time': [1512, 2179, 2512, 2861]}, 'edge': {'target': [], 'time': []}}}","[2, 8, 24]","[1823, 203, 103]",0,0,36,"[None, None, None]","['', 2, -4, 48, 24, 2, 8, 24, 24, -2, 4, 24, 24]",1202977,10848,mouselab-mdp,False
608c0288bce208aa19b5e302,15,"[12140, 12740, 13428]","['up', 'up', 'left']",test,"['0', '0', '1', '2', '4']","{'click': {'state': {'target': ['5', '1', '9', '10', '12', '11', '6', '8', '2', '7', '3', '4'], 'time': [1124, 2549, 2973, 3581, 4261, 4949, 5997, 6717, 8333, 9453, 9997, 10475]}, 'edge': {'target': [], 'time': []}}, 'mouseover': {'state': {'target': ['0', '5', '0', '1', '9', '10', '12', '11', '0', '6', '6', '8', '7', '2', '3', '7', '3', '4'], 'time': [946, 979, 1863, 2429, 2846, 3446, 4113, 4796, 5246, 5363, 5613, 6230, 7396, 8146, 8863, 9339, 9829, 10330]}, 'edge': {'target': [], 'time': []}}, 'mouseout': {'state': {'target': ['1', '0', '5', '0', '1', '9', '10', '12', '10', '11', '9', '0', '5', '6', '6', '8', '6', '7', '2', '3', '7', '3', '2', '4', '1'], 'time': [495, 963, 1834, 1929, 2763, 3379, 3963, 4596, 4713, 5163, 5213, 5263, 5330, 5413, 6161, 6987, 7179, 8063, 8779, 8896, 9763, 10196, 10296, 10863, 10946]}, 'edge': {'target': [], 'time': []}}}","[-4, -8, 24]","[11450, 111, 195]",0,0,5,"[None, None, None]","['', -4, -8, -48, 24, -4, -4, -24, -48, 2, -8, -24, -48]",1217936,14892,mouselab-mdp,False
608c0288bce208aa19b5e302,16,"[5261, 5812, 6428]","['up', 'up', 'right']",test,"['0', '0', '1', '2', '3']","{'click': {'state': {'target': ['5', '6', '1', '2', '3'], 'time': [1533, 1982, 2989, 3980, 4814]}, 'edge': {'target': [], 'time': []}}, 'mouseover': {'state': {'target': ['0', '5', '6', '8', '1', '2', '3'], 'time': [1313, 1378, 1928, 2211, 2879, 3661, 4728]}, 'edge': {'target': [], 'time': []}}, 'mouseout': {'state': {'target': ['0', '5', '6', '8', '5', '1', '2', '3', '8'], 'time': [1343, 1811, 2176, 2694, 2761, 3478, 4378, 5295, 10428]}, 'edge': {'target': [], 'time': []}}}","[2, 4, 48]","[3988, 32, 100]",0,0,54,"[None, None, None]","['', 2, 4, 48, 48, 4, -8, 24, -48, -4, -8, -24, -48]",1228912,10900,mouselab-mdp,False
608c0288bce208aa19b5e302,17,"[3824, 4368, 5000]","['left', 'left', 'down']",test,"['0', '0', '9', '10', '12']","{'click': {'state': {'target': ['5', '1', '9', '10', '12'], 'time': [881, 1817, 2176, 2808, 3302]}, 'edge': {'target': [], 'time': []}}, 'mouseover': {'state': {'target': ['5', '6', '1', '1', '9', '10', '12'], 'time': [765, 1131, 1298, 1597, 2081, 2631, 3163]}, 'edge': {'target': [], 'time': []}}, 'mouseout': {'state': {'target': ['0', '5', '6', '5', '1', '1', '9', '10', '12'], 'time': [414, 1081, 1215, 1281, 1330, 1965, 2598, 2998, 5698]}, 'edge': {'target': [], 'time': []}}}","[2, 4, 48]","[3295, 50, 102]",0,0,54,"[None, None, None]","['', -4, -4, -24, 48, -4, -8, -24, 48, 2, 4, 48, 48]",1237976,8984,mouselab-mdp,False
608c0288bce208aa19b5e302,18,"[3518, 4502, 5198]","['right', 'right', 'up']",test,"['0', '0', '5', '6', '7']","{'click': {'state': {'target': ['5', '6', '8', '7'], 'time': [999, 1720, 2198, 2894]}, 'edge': {'target': [], 'time': []}}, 'mouseover': {'state': {'target': ['0', '5', '6', '8', '7'], 'time': [755, 822, 1628, 2073, 2708]}, 'edge': {'target': [], 'time': []}}, 'mouseout': {'state': {'target': ['5', '0', '5', '6', '8', '6', '7'], 'time': [439, 789, 1439, 2023, 2557, 2607, 3140]}, 'edge': {'target': [], 'time': []}}}","[2, 4, 48]","[2858, 476, 207]",0,0,55,"[None, None, None]","['', 4, -8, 48, 48, 2, 4, 48, -48, 4, -4, -48, 48]",1249312,11262,mouselab-mdp,False
608c0288bce208aa19b5e302,19,"[4735, 5679, 6199]","['up', 'up', 'right']",test,"['0', '0', '1', '2', '3']","{'click': {'state': {'target': ['5', '6', '7', '8', '1', '2', '3'], 'time': [1289, 1728, 2167, 2689, 3247, 3623, 4135]}, 'edge': {'target': [], 'time': []}}, 'mouseover': {'state': {'target': ['5', '6', '7', '8', '1', '2', '3'], 'time': [1281, 1647, 2064, 2614, 3097, 3464, 4014]}, 'edge': {'target': [], 'time': []}}, 'mouseout': {'state': {'target': ['5', '6', '7', '6', '8', '5', '1', '2', '3'], 'time': [1614, 2031, 2380, 2564, 2997, 3047, 3431, 3864, 6864]}, 'edge': {'target': [], 'time': []}}}","[4, 8, 48]","[3903, 446, 16]",0,0,58,"[None, None, None]","['', 4, 8, 48, 48, 4, 4, -24, -48, 4, 8, -48, -48]",1259480,10087,mouselab-mdp,False
608c0288bce208aa19b5e302,20,"[3813, 4373, 4949]","['right', 'right', 'up']",test,"['0', '0', '5', '6', '7']","{'click': {'state': {'target': ['5', '6', '8', '7'], 'time': [1454, 1951, 2467, 3253]}, 'edge': {'target': [], 'time': []}}, 'mouseover': {'state': {'target': ['5', '6', '8', '7'], 'time': [1344, 1827, 2393, 3110]}, 'edge': {'target': [], 'time': []}}, 'mouseout': {'state': {'target': ['9', '0', '0', '5', '6', '8', '6', '7', '1', '5'], 'time': [560, 610, 1261, 1744, 2343, 2762, 2877, 3511, 5727, 10394]}, 'edge': {'target': [], 'time': []}}}","[2, 4, 24]","[2657, 60, 69]",0,0,31,"[None, None, None]","['', 4, 4, -24, -48, 2, 4, 24, -48, 2, 4, 24, 24]",1270288,10725,mouselab-mdp,False
608c0288bce208aa19b5e302,21,"[5654, 6191, 6782]","['right', 'right', 'down']",test,"['0', '0', '5', '6', '8']","{'click': {'state': {'target': ['5', '6', '1', '9', '8'], 'time': [798, 1166, 2118, 2854, 4464]}, 'edge': {'target': [], 'time': []}}, 'mouseover': {'state': {'target': ['5', '6', '7', '1', '9', '8'], 'time': [620, 1054, 1471, 2037, 2537, 4270]}, 'edge': {'target': [], 'time': []}}, 'mouseout': {'state': {'target': ['0', '5', '6', '7', '1', '1', '9', '8', '6', '6'], 'time': [604, 1004, 1437, 1787, 2386, 2487, 3920, 4920, 4987, 5504]}, 'edge': {'target': [], 'time': []}}}","[2, -4, 24]","[5158, 36, 78]",0,0,22,"[None, None, None]","['', -4, -8, 24, 48, 2, -4, -24, 24, -4, 8, 48, 48]",1279280,8910,mouselab-mdp,False
608c0288bce208aa19b5e302,22,"[4570, 5098, 5674]","['left', 'left', 'down']",test,"['0', '0', '9', '10', '12']","{'click': {'state': {'target': ['5', '1', '9', '10', '12', '11'], 'time': [1019, 1618, 2026, 2618, 3027, 4203]}, 'edge': {'target': [], 'time': []}}, 'mouseover': {'state': {'target': ['0', '5', '1', '9', '10', '12', '11'], 'time': [790, 891, 1525, 1823, 2508, 2925, 3808]}, 'edge': {'target': [], 'time': []}}, 'mouseout': {'state': {'target': ['8', '5', '0', '5', '1', '9', '10', '12', '10', '11', '10', '12'], 'time': [207, 457, 823, 1408, 1773, 2408, 2858, 3308, 3775, 4340, 4491, 6073]}, 'edge': {'target': [], 'time': []}}}","[4, 8, 24]","[3829, 21, 64]",0,0,35,"[None, None, None]","['', -4, 4, -48, -48, -2, -8, -48, -24, 4, 8, -24, 24]",1289816,10449,mouselab-mdp,False
608c0288bce208aa19b5e302,23,"[3626, 4170, 4705]","['up', 'up', 'right']",test,"['0', '0', '1', '2', '3']","{'click': {'state': {'target': ['5', '6', '1', '2', '3'], 'time': [882, 1394, 2211, 2674, 3114]}, 'edge': {'target': [], 'time': []}}, 'mouseover': {'state': {'target': ['5', '6', '8', '1', '2', '3'], 'time': [747, 1313, 1597, 1992, 2563, 3013]}, 'edge': {'target': [], 'time': []}}, 'mouseout': {'state': {'target': ['0', '5', '6', '8', '1', '2', '3'], 'time': [713, 1263, 1563, 1830, 2547, 2812, 3997]}, 'edge': {'target': [], 'time': []}}}","[4, 4, 48]","[3145, 53, 8]",0,0,56,"[None, None, None]","['', 4, 4, 48, -24, 2, -4, 48, 24, -4, -4, -48, 24]",1298776,8881,mouselab-mdp,False
608c0288bce208aa19b5e302,24,"[4728, 5319, 5936]","['up', 'up', 'left']",test,"['0', '0', '1', '2', '4']","{'click': {'state': {'target': ['5', '1', '9', '2', '3', '4'], 'time': [1306, 1801, 2257, 2976, 3464, 4304]}, 'edge': {'target': [], 'time': []}}, 'mouseover': {'state': {'target': ['0', '5', '1', '9', '2', '3', '4'], 'time': [1102, 1168, 1685, 2185, 2868, 3385, 4169]}, 'edge': {'target': [], 'time': []}}, 'mouseout': {'state': {'target': ['7', '5', '0', '5', '1', '9', '1', '2', '3', '2', '4'], 'time': [317, 434, 1118, 1635, 2118, 2622, 2835, 3218, 3735, 3935, 4568]}, 'edge': {'target': [], 'time': []}}}","[2, 8, 24]","[3782, 99, 99]",0,0,33,"[None, None, None]","['', 2, 8, -48, 24, -2, 4, 48, 48, -2, -8, 48, 24]",1309200,10343,mouselab-mdp,False
608c0288bce208aa19b5e302,25,"[7866, 8522, 9194]","['left', 'left', 'up']",test,"['0', '0', '9', '10', '11']","{'click': {'state': {'target': ['5', '6', '8', '7', '1', '9', '10', '2', '11'], 'time': [981, 1460, 1851, 2387, 3028, 3931, 5067, 6315, 7139]}, 'edge': {'target': [], 'time': []}}, 'mouseover': {'state': {'target': ['0', '5', '6', '8', '7', '1', '9', '10', '2', '11'], 'time': [746, 846, 1380, 1747, 2246, 2931, 3814, 4397, 6230, 6831]}, 'edge': {'target': [], 'time': []}}, 'mouseout': {'state': {'target': ['7', '0', '5', '6', '8', '6', '7', '6', '5', '1', '9', '10', '2', '11', '10'], 'time': [330, 779, 1297, 1697, 2014, 2213, 2563, 2679, 2731, 3614, 4197, 5747, 6714, 7497, 8265]}, 'edge': {'target': [], 'time': []}}}","[-2, 8, 48]","[7259, 141, 180]",0,0,50,"[None, None, None]","['', -2, 4, 24, 48, 2, 4, -48, -48, -2, 8, 48, -24]",1319647,10370,mouselab-mdp,False
608c0288bce208aa19b5e302,26,"[12938, 13491, 14033]","['up', 'up', 'right']",test,"['0', '0', '1', '2', '3']","{'click': {'state': {'target': ['5', '6', '1', '9', '10', '12', '11', '8', '7', '2', '3', '4'], 'time': [858, 1388, 2450, 3034, 4722, 7723, 8282, 9138, 9560, 11418, 11907, 12442]}, 'edge': {'target': [], 'time': []}}, 'mouseover': {'state': {'target': ['5', '6', '8', '1', '9', '10', '12', '11', '8', '7', '2', '3', '4'], 'time': [696, 1298, 1563, 2331, 2931, 4514, 7414, 8164, 9013, 9464, 11281, 11630, 12331]}, 'edge': {'target': [], 'time': []}}, 'mouseout': {'state': {'target': ['0', '5', '6', '8', '5', '1', '9', '10', '12', '10', '11', '9', '8', '6', '7', '2', '3', '2', '4', '2'], 'time': [347, 1248, 1530, 2106, 2148, 2848, 4264, 7031, 8064, 8148, 8465, 8564, 9281, 9381, 10098, 11542, 12131, 12248, 12648, 12731]}, 'edge': {'target': [], 'time': []}}}","[-4, 8, 48]","[12450, 55, 34]",0,0,45,"[None, None, None]","['', -4, 8, 48, -48, 2, -4, 24, -24, -2, 4, -24, -24]",1334871,15161,mouselab-mdp,False
608c0288bce208aa19b5e302,27,"[7551, 8111, 8727]","['up', 'up', 'right']",test,"['0', '0', '1', '2', '3']","{'click': {'state': {'target': ['5', '9', '10', '12', '11', '1', '2', '3'], 'time': [1016, 2200, 2952, 3584, 4472, 5034, 5696, 6680]}, 'edge': {'target': [], 'time': []}}, 'mouseover': {'state': {'target': ['5', '9', '9', '10', '12', '11', '11', '1', '2', '3'], 'time': [872, 1639, 2046, 2823, 3373, 4039, 4322, 4804, 5654, 6272]}, 'edge': {'target': [], 'time': []}}, 'mouseout': {'state': {'target': ['7', '5', '0', '5', '9', '9', '9', '10', '12', '10', '11', '11', '1', '2', '3'], 'time': [255, 405, 806, 1556, 1806, 2573, 2806, 3156, 3839, 4006, 4056, 4656, 5371, 5772, 7905]}, 'edge': {'target': [], 'time': []}}}","[4, -4, 48]","[6933, 71, 86]",0,0,45,"[None, None, None]","['', 4, -4, 48, -48, -4, -4, 48, -48, 4, 4, -48, -24]",1344575,9623,mouselab-mdp,False
608c0288bce208aa19b5e302,28,"[3162, 4130, 4810]","['right', 'right', 'down']",test,"['0', '0', '5', '6', '8']","{'click': {'state': {'target': ['5', '6', '8'], 'time': [1539, 1938, 2298]}, 'edge': {'target': [], 'time': []}}, 'mouseover': {'state': {'target': ['5', '6', '8'], 'time': [1422, 1821, 2205]}, 'edge': {'target': [], 'time': []}}, 'mouseout': {'state': {'target': ['5', '6', '8'], 'time': [1788, 2171, 3372]}, 'edge': {'target': [], 'time': []}}}","[4, 4, 24]","[2121, 473, 189]",0,0,34,"[None, None, None]","['', 4, 4, 48, -48, 4, 4, -48, 24, 2, 8, 24, -48]",1354008,9354,mouselab-mdp,False
608c0288bce208aa19b5e302,29,"[11024, 11576, 12135]","['up', 'up', 'right']",test,"['0', '0', '1', '2', '3']","{'click': {'state': {'target': ['5', '6', '1', '9', '10', '11', '12', '2', '4', '8', '7', '3'], 'time': [1313, 1714, 2393, 3041, 3713, 4641, 5078, 5857, 6489, 9328, 9849, 10369]}, 'edge': {'target': [], 'time': []}}, 'mouseover': {'state': {'target': ['5', '6', '5', '6', '8', '1', '9', '10', '11', '11', '12', '2', '4', '3', '8', '8', '7', '3'], 'time': [596, 646, 1247, 1563, 1996, 2246, 2935, 3563, 4263, 4530, 5028, 5713, 6146, 7207, 8367, 9212, 9763, 10196]}, 'edge': {'target': [], 'time': []}}, 'mouseout': {'state': {'target': ['0', '5', '6', '5', '6', '8', '5', '1', '9', '10', '11', '11', '10', '12', '1', '2', '4', '2', '3', '8', '6', '8', '6', '7', '3', '5'], 'time': [345, 630, 813, 1513, 1963, 2080, 2129, 2563, 3463, 4246, 4296, 4812, 4962, 5363, 5630, 6121, 6913, 6996, 7430, 8645, 9113, 9646, 9713, 10146, 10612, 12963]}, 'edge': {'target': [], 'time': []}}}","[-2, -4, 48]","[10527, 61, 56]",0,0,35,"[None, None, None]","['', -2, -4, 48, -24, 2, -4, -24, -48, 2, 8, -48, -24]",1369151,15056,mouselab-mdp,False
608c0288bce208aa19b5e302,30,"[3569, 4505, 5137]","['right', 'right', 'down']",test,"['0', '0', '5', '6', '8']","{'click': {'state': {'target': ['5', '6', '8'], 'time': [1066, 1500, 2059]}, 'edge': {'target': [], 'time': []}}, 'mouseover': {'state': {'target': ['5', '6', '8'], 'time': [919, 1453, 2019]}, 'edge': {'target': [], 'time': []}}, 'mouseout': {'state': {'target': ['0', '5', '6', '8', '5', '0'], 'time': [918, 1336, 1736, 2353, 2486, 4036]}, 'edge': {'target': [], 'time': []}}}","[4, -8, 48]","[2851, 432, 132]",0,0,46,"[None, None, None]","['', -4, -8, 48, -24, 4, -8, 48, 48, -2, 4, -48, -24]",1379311,10089,mouselab-mdp,False
6165d04961f94aba783d4529,1,"[2502, 3438, 5671]","['left', 'left', 'down']",begin,"['0', '0', '9', '10', '12']","{'click': {'state': {'target': [], 'time': []}, 'edge': {'target': [], 'time': []}}, 'mouseover': {'state': {'target': [], 'time': []}, 'edge': {'target': [], 'time': []}}, 'mouseout': {'state': {'target': ['0'], 'time': [1130]}, 'edge': {'target': [], 'time': []}}}","[2, 4, -24]","[1029, 440, 1737]",0,0,-13,"[None, None, None]","['', -2, -8, -48, 24, 2, -4, -48, 48, 2, 4, 24, -24]",1311713,11030,mouselab-mdp,False
6165d04961f94aba783d4529,2,"[7572, 8428, 9193]","['left', 'left', 'down']",begin,"['0', '0', '9', '10', '12']","{'click': {'state': {'target': [], 'time': []}, 'edge': {'target': [], 'time': []}}, 'mouseover': {'state': {'target': ['1', '0'], 'time': [6494, 7226]}, 'edge': {'target': [], 'time': []}}, 'mouseout': {'state': {'target': ['0', '1', '0'], 'time': [4614, 6893, 10077]}, 'edge': {'target': [], 'time': []}}}","[4, -4, 24]","[6432, 365, 265]",0,0,29,"[None, None, None]","['', 4, -8, 48, -24, 4, -4, -48, -48, 4, -4, 24, 24]",1322801,10979,mouselab-mdp,False
6165d04961f94aba783d4529,3,"[2368, 3235, 5602]","['left', 'left', 'down']",begin,"['0', '0', '9', '10', '12']","{'click': {'state': {'target': [], 'time': []}, 'edge': {'target': [], 'time': []}}, 'mouseover': {'state': {'target': [], 'time': []}, 'edge': {'target': [], 'time': []}}, 'mouseout': {'state': {'target': ['0'], 'time': [1310]}, 'edge': {'target': [], 'time': []}}}","[-4, 8, 48]","[871, 372, 1871]",0,0,57,"[None, None, None]","['', 2, -4, 24, 24, 2, 4, 24, 24, -4, 8, 24, 48]",1334390,11485,mouselab-mdp,False
6165d04961f94aba783d4529,4,"[2026, 2857, 3986]","['left', 'left', 'down']",begin,"['0', '0', '9', '10', '12']","{'click': {'state': {'target': [], 'time': []}, 'edge': {'target': [], 'time': []}}, 'mouseover': {'state': {'target': [], 'time': []}, 'edge': {'target': [], 'time': []}}, 'mouseout': {'state': {'target': ['0', '0'], 'time': [1048, 5419]}, 'edge': {'target': [], 'time': []}}}","[2, 8, -24]","[598, 335, 631]",0,0,-9,"[None, None, None]","['', -2, 8, 48, 24, 2, -4, 48, -48, 2, 8, 24, -24]",1346097,11583,mouselab-mdp,False
6165d04961f94aba783d4529,5,"[6163, 6911, 8212]","['left', 'left', 'down']",begin,"['0', '0', '9', '10', '12']","{'click': {'state': {'target': [], 'time': []}, 'edge': {'target': [], 'time': []}}, 'mouseover': {'state': {'target': [], 'time': []}, 'edge': {'target': [], 'time': []}}, 'mouseout': {'state': {'target': ['0', '5'], 'time': [1348, 11549]}, 'edge': {'target': [], 'time': []}}}","[4, 8, -48]","[4568, 244, 809]",0,0,-31,"[None, None, None]","['', 4, 8, 48, 48, 4, 4, -24, -48, 4, 8, -48, -48]",1358568,12365,mouselab-mdp,False
6165d04961f94aba783d4529,6,"[2030, 2714, 3617]","['left', 'left', 'down']",begin,"['0', '0', '9', '10', '12']","{'click': {'state': {'target': [], 'time': []}, 'edge': {'target': [], 'time': []}}, 'mouseover': {'state': {'target': [], 'time': []}, 'edge': {'target': [], 'time': []}}, 'mouseout': {'state': {'target': ['0', '0'], 'time': [1210, 7362]}, 'edge': {'target': [], 'time': []}}}","[-2, -4, -48]","[692, 186, 405]",0,0,-49,"[None, None, None]","['', -4, -8, -48, 48, -2, 8, 48, 48, -2, -4, -48, -48]",1369199,10489,mouselab-mdp,False
6165d04961f94aba783d4529,7,"[2747, 3630, 4402]","['left', 'left', 'down']",begin,"['0', '0', '9', '10', '12']","{'click': {'state': {'target': [], 'time': []}, 'edge': {'target': [], 'time': []}}, 'mouseover': {'state': {'target': [], 'time': []}, 'edge': {'target': [], 'time': []}}, 'mouseout': {'state': {'target': ['0', '0'], 'time': [907, 10192]}, 'edge': {'target': [], 'time': []}}}","[2, 4, -48]","[1263, 387, 277]",0,0,-37,"[None, None, None]","['', 4, 4, 48, -48, -2, -8, -48, -24, 2, 4, -24, -48]",1380004,10690,mouselab-mdp,False
6165d04961f94aba783d4529,8,"[6148, 6904, 8095]","['left', 'left', 'down']",begin,"['0', '0', '9', '10', '12']","{'click': {'state': {'target': ['9'], 'time': [4773]}, 'edge': {'target': [], 'time': []}}, 'mouseover': {'state': {'target': ['9'], 'time': [4573]}, 'edge': {'target': [], 'time': []}}, 'mouseout': {'state': {'target': ['0', '9'], 'time': [1322, 5741]}, 'edge': {'target': [], 'time': []}}}","[4, -4, -24]","[4487, 261, 688]",0,0,-20,"[None, None, None]","['', -2, -4, -24, -48, -2, 8, -48, 24, 4, -4, -24, -24]",1390881,10765,mouselab-mdp,False
6165d04961f94aba783d4529,9,"[2606, 3333, 4713]","['left', 'left', 'down']",begin,"['0', '0', '9', '10', '12']","{'click': {'state': {'target': [], 'time': []}, 'edge': {'target': [], 'time': []}}, 'mouseover': {'state': {'target': [], 'time': []}, 'edge': {'target': [], 'time': []}}, 'mouseout': {'state': {'target': ['0'], 'time': [9876]}, 'edge': {'target': [], 'time': []}}}","[-2, -4, -48]","[1225, 233, 880]",0,0,-49,"[None, None, None]","['', -2, -8, 48, 24, 2, 4, 24, -24, -2, -4, 48, -48]",1401508,10499,mouselab-mdp,False
6165d04961f94aba783d4529,10,"[2892, 3635, 4317]","['left', 'left', 'down']",begin,"['0', '0', '9', '10', '12']","{'click': {'state': {'target': [], 'time': []}, 'edge': {'target': [], 'time': []}}, 'mouseover': {'state': {'target': [], 'time': []}, 'edge': {'target': [], 'time': []}}, 'mouseout': {'state': {'target': ['0', '0'], 'time': [1049, 5451]}, 'edge': {'target': [], 'time': []}}}","[2, -8, -48]","[1533, 248, 183]",0,0,-49,"[None, None, None]","['', 2, -4, -48, 24, -4, 4, 24, 24, 2, -8, -24, -48]",1412440,10816,mouselab-mdp,False
6165d04961f94aba783d4529,11,"[2255, 2889, 3421]","['left', 'left', 'down']",test,"['0', '0', '9', '10', '12']","{'click': {'state': {'target': [], 'time': []}, 'edge': {'target': [], 'time': []}}, 'mouseover': {'state': {'target': [], 'time': []}, 'edge': {'target': [], 'time': []}}, 'mouseout': {'state': {'target': ['0', '1', '0'], 'time': [913, 1214, 4099]}, 'edge': {'target': [], 'time': []}}}","[-2, -8, 48]","[753, 140, 37]",0,0,43,"[None, None, None]","['', 2, -4, 48, -48, -2, 8, -48, 24, -2, -8, 48, 48]",1424115,11570,mouselab-mdp,False
6165d04961f94aba783d4529,12,"[2167, 2815, 3451]","['left', 'left', 'down']",test,"['0', '0', '9', '10', '12']","{'click': {'state': {'target': [], 'time': []}, 'edge': {'target': [], 'time': []}}, 'mouseover': {'state': {'target': [], 'time': []}, 'edge': {'target': [], 'time': []}}, 'mouseout': {'state': {'target': ['0', '0'], 'time': [1080, 6531]}, 'edge': {'target': [], 'time': []}}}","[-4, -4, 24]","[664, 148, 134]",0,0,21,"[None, None, None]","['', -4, -4, 24, 48, 4, -4, -24, 24, -4, -4, 24, 24]",1435961,11732,mouselab-mdp,False
6165d04961f94aba783d4529,13,"[1599, 2264, 2830]","['left', 'left', 'down']",test,"['0', '0', '9', '10', '12']","{'click': {'state': {'target': [], 'time': []}, 'edge': {'target': [], 'time': []}}, 'mouseover': {'state': {'target': [], 'time': []}, 'edge': {'target': [], 'time': []}}, 'mouseout': {'state': {'target': [], 'time': []}, 'edge': {'target': [], 'time': []}}}","[2, 8, -24]","[685, 171, 73]",0,0,-9,"[None, None, None]","['', -2, -4, 48, -24, 2, -4, -24, -48, 2, 8, -48, -24]",1446848,10760,mouselab-mdp,False
6165d04961f94aba783d4529,14,"[1097, 1679, 2190]","['left', 'left', 'down']",test,"['0', '0', '9', '10', '12']","{'click': {'state': {'target': [], 'time': []}, 'edge': {'target': [], 'time': []}}, 'mouseover': {'state': {'target': [], 'time': []}, 'edge': {'target': [], 'time': []}}, 'mouseout': {'state': {'target': ['0', '0', '10'], 'time': [404, 10222, 10355]}, 'edge': {'target': [], 'time': []}}}","[-4, 8, 24]","[565, 88, 16]",0,0,33,"[None, None, None]","['', 4, -8, 48, 24, 4, -4, 48, 48, -4, 8, -48, 24]",1457691,10734,mouselab-mdp,False
6165d04961f94aba783d4529,15,"[2326, 3490, 4277]","['left', 'left', 'down']",test,"['0', '0', '9', '10', '12']","{'click': {'state': {'target': [], 'time': []}, 'edge': {'target': [], 'time': []}}, 'mouseover': {'state': {'target': [], 'time': []}, 'edge': {'target': [], 'time': []}}, 'mouseout': {'state': {'target': ['0'], 'time': [5212]}, 'edge': {'target': [], 'time': []}}}","[2, 8, 24]","[1521, 661, 296]",0,0,39,"[None, None, None]","['', 2, 8, -48, 24, -4, 8, 48, -24, 2, 8, 24, 24]",1468718,10918,mouselab-mdp,False
6165d04961f94aba783d4529,16,"[1347, 1998, 2617]","['left', 'left', 'down']",test,"['0', '0', '9', '10', '12']","{'click': {'state': {'target': [], 'time': []}, 'edge': {'target': [], 'time': []}}, 'mouseover': {'state': {'target': [], 'time': []}, 'edge': {'target': [], 'time': []}}, 'mouseout': {'state': {'target': ['0'], 'time': [745]}, 'edge': {'target': [], 'time': []}}}","[2, 4, 48]","[411, 150, 118]",0,0,59,"[None, None, None]","['', 4, -4, 48, 24, 2, 4, 24, -24, 2, 4, 24, 48]",1478816,9949,mouselab-mdp,False
6165d04961f94aba783d4529,17,"[1481, 2229, 3732]","['left', 'left', 'down']",test,"['0', '0', '9', '10', '12']","{'click': {'state': {'target': [], 'time': []}, 'edge': {'target': [], 'time': []}}, 'mouseover': {'state': {'target': [], 'time': []}, 'edge': {'target': [], 'time': []}}, 'mouseout': {'state': {'target': ['0', '0'], 'time': [492, 9618]}, 'edge': {'target': [], 'time': []}}}","[-4, 8, 48]","[776, 244, 998]",0,0,57,"[None, None, None]","['', 4, 8, 48, -48, -4, 8, -24, -24, -4, 8, 48, 48]",1489384,10453,mouselab-mdp,False
6165d04961f94aba783d4529,18,"[1856, 2511, 3118]","['left', 'left', 'down']",test,"['0', '0', '9', '10', '12']","{'click': {'state': {'target': [], 'time': []}, 'edge': {'target': [], 'time': []}}, 'mouseover': {'state': {'target': [], 'time': []}, 'edge': {'target': [], 'time': []}}, 'mouseout': {'state': {'target': ['0', '1'], 'time': [654, 887]}, 'edge': {'target': [], 'time': []}}}","[4, 8, -48]","[693, 154, 111]",0,0,-31,"[None, None, None]","['', 4, -4, 48, -48, 4, -4, 24, -24, 4, 8, -24, -48]",1501238,11728,mouselab-mdp,False
6165d04961f94aba783d4529,19,"[1490, 2132, 3046]","['left', 'left', 'down']",test,"['0', '0', '9', '10', '12']","{'click': {'state': {'target': [], 'time': []}, 'edge': {'target': [], 'time': []}}, 'mouseover': {'state': {'target': [], 'time': []}, 'edge': {'target': [], 'time': []}}, 'mouseout': {'state': {'target': ['0'], 'time': [3849]}, 'edge': {'target': [], 'time': []}}}","[-2, 4, 48]","[680, 150, 411]",0,0,55,"[None, None, None]","['', -2, -8, 48, 24, -2, 8, -48, -24, -2, 4, -48, 48]",1511198,9846,mouselab-mdp,False
6165d04961f94aba783d4529,20,"[2030, 2611, 3160]","['left', 'left', 'down']",test,"['0', '0', '9', '10', '12']","{'click': {'state': {'target': [], 'time': []}, 'edge': {'target': [], 'time': []}}, 'mouseover': {'state': {'target': [], 'time': []}, 'edge': {'target': [], 'time': []}}, 'mouseout': {'state': {'target': [], 'time': []}, 'edge': {'target': [], 'time': []}}}","[4, -4, 48]","[559, 80, 44]",0,0,53,"[None, None, None]","['', -2, 8, -48, 48, 4, -8, -48, 48, 4, -4, -24, 48]",1523396,12077,mouselab-mdp,False
6165d04961f94aba783d4529,21,"[1145, 1645, 2159]","['left', 'left', 'down']",test,"['0', '0', '9', '10', '12']","{'click': {'state': {'target': [], 'time': []}, 'edge': {'target': [], 'time': []}}, 'mouseover': {'state': {'target': [], 'time': []}, 'edge': {'target': [], 'time': []}}, 'mouseout': {'state': {'target': ['0'], 'time': [454]}, 'edge': {'target': [], 'time': []}}}","[-4, -4, -48]","[599, 9, 3]",0,0,-51,"[None, None, None]","['', -4, -8, -24, 24, 4, 4, -48, -48, -4, -4, 24, -48]",1533756,10238,mouselab-mdp,False
6165d04961f94aba783d4529,22,"[980, 1905, 2939]","['left', 'left', 'down']",test,"['0', '0', '9', '10', '12']","{'click': {'state': {'target': [], 'time': []}, 'edge': {'target': [], 'time': []}}, 'mouseover': {'state': {'target': [], 'time': []}, 'edge': {'target': [], 'time': []}}, 'mouseout': {'state': {'target': ['0', '0'], 'time': [423, 3816]}, 'edge': {'target': [], 'time': []}}}","[-4, 8, 48]","[470, 425, 544]",0,0,57,"[None, None, None]","['', -2, -8, 48, 24, 2, 8, -48, 24, -4, 8, 48, 48]",1542621,8746,mouselab-mdp,False
6165d04961f94aba783d4529,23,"[1320, 2480, 3086]","['left', 'left', 'down']",test,"['0', '0', '9', '10', '12']","{'click': {'state': {'target': [], 'time': []}, 'edge': {'target': [], 'time': []}}, 'mouseover': {'state': {'target': [], 'time': []}, 'edge': {'target': [], 'time': []}}, 'mouseout': {'state': {'target': [], 'time': []}, 'edge': {'target': [], 'time': []}}}","[-4, -8, -48]","[409, 665, 104]",0,0,-55,"[None, None, None]","['', -2, 4, -24, -24, -2, 4, 48, 24, -4, -8, 24, -48]",1552681,9941,mouselab-mdp,False
6165d04961f94aba783d4529,24,"[1036, 1893, 2394]","['left', 'left', 'down']",test,"['0', '0', '9', '10', '12']","{'click': {'state': {'target': [], 'time': []}, 'edge': {'target': [], 'time': []}}, 'mouseover': {'state': {'target': [], 'time': []}, 'edge': {'target': [], 'time': []}}, 'mouseout': {'state': {'target': [], 'time': []}, 'edge': {'target': [], 'time': []}}}","[2, -8, 24]","[551, 353, 3]",0,0,23,"[None, None, None]","['', 4, 4, 48, -24, -4, -8, 24, -24, 2, -8, -24, 24]",1563480,10682,mouselab-mdp,False
6165d04961f94aba783d4529,25,"[908, 1494, 2423]","['left', 'left', 'down']",test,"['0', '0', '9', '10', '12']","{'click': {'state': {'target': [], 'time': []}, 'edge': {'target': [], 'time': []}}, 'mouseover': {'state': {'target': [], 'time': []}, 'edge': {'target': [], 'time': []}}, 'mouseout': {'state': {'target': ['0'], 'time': [8943]}, 'edge': {'target': [], 'time': []}}}","[2, -8, 24]","[456, 86, 428]",0,0,23,"[None, None, None]","['', -2, -8, -24, 48, -2, -8, -48, -48, 2, -8, -48, 24]",1573605,9991,mouselab-mdp,False
6165d04961f94aba783d4529,26,"[1420, 2305, 3147]","['left', 'left', 'down']",test,"['0', '0', '9', '10', '12']","{'click': {'state': {'target': [], 'time': []}, 'edge': {'target': [], 'time': []}}, 'mouseover': {'state': {'target': [], 'time': []}, 'edge': {'target': [], 'time': []}}, 'mouseout': {'state': {'target': [], 'time': []}, 'edge': {'target': [], 'time': []}}}","[2, -4, -24]","[584, 387, 345]",0,0,-21,"[None, None, None]","['', 2, 8, -48, -24, 2, -4, -48, 24, 2, -4, -24, -24]",1583712,9972,mouselab-mdp,False
6165d04961f94aba783d4529,27,"[894, 1666, 2391]","['left', 'left', 'down']",test,"['0', '0', '9', '10', '12']","{'click': {'state': {'target': [], 'time': []}, 'edge': {'target': [], 'time': []}}, 'mouseover': {'state': {'target': [], 'time': []}, 'edge': {'target': [], 'time': []}}, 'mouseout': {'state': {'target': ['0', '0'], 'time': [9191, 9974]}, 'edge': {'target': [], 'time': []}}}","[-4, 4, 24]","[490, 274, 230]",0,0,29,"[None, None, None]","['', -4, -4, -24, 24, 4, 4, -24, -24, -4, 4, 24, 24]",1594381,10514,mouselab-mdp,False
6165d04961f94aba783d4529,28,"[970, 1584, 2096]","['left', 'left', 'down']",test,"['0', '0', '9', '10', '12']","{'click': {'state': {'target': [], 'time': []}, 'edge': {'target': [], 'time': []}}, 'mouseover': {'state': {'target': [], 'time': []}, 'edge': {'target': [], 'time': []}}, 'mouseout': {'state': {'target': ['0', '0'], 'time': [325, 3105]}, 'edge': {'target': [], 'time': []}}}","[-2, 4, -48]","[563, 110, 21]",0,0,-41,"[None, None, None]","['', 2, 4, -48, -24, 2, 8, 24, 48, -2, 4, 48, -48]",1605050,10531,mouselab-mdp,False
6165d04961f94aba783d4529,29,"[1247, 1776, 2304]","['left', 'left', 'down']",test,"['0', '0', '9', '10', '12']","{'click': {'state': {'target': [], 'time': []}, 'edge': {'target': [], 'time': []}}, 'mouseover': {'state': {'target': [], 'time': []}, 'edge': {'target': [], 'time': []}}, 'mouseout': {'state': {'target': [], 'time': []}, 'edge': {'target': [], 'time': []}}}","[4, -4, -48]","[450, 39, 32]",0,0,-43,"[None, None, None]","['', -2, -8, 48, 24, 4, -8, 24, 48, 4, -4, 24, -48]",1616406,11181,mouselab-mdp,False
6165d04961f94aba783d4529,30,"[1780, 2345, 2892]","['left', 'left', 'down']",test,"['0', '0', '9', '10', '12']","{'click': {'state': {'target': [], 'time': []}, 'edge': {'target': [], 'time': []}}, 'mouseover': {'state': {'target': [], 'time': []}, 'edge': {'target': [], 'time': []}}, 'mouseout': {'state': {'target': [], 'time': []}, 'edge': {'target': [], 'time': []}}}","[-2, 8, -48]","[369, 71, 53]",0,0,-37,"[None, None, None]","['', 2, 4, -48, -48, 2, 4, 48, -24, -2, 8, 48, -48]",1627107,10582,mouselab-mdp,False
611cccc7df12bfa05e6135e0,1,"[30153, 33555, 35712]","['right', 'right', 'up']",begin,"['0', '0', '5', '6', '7']","{'click': {'state': {'target': ['11', '3', '7', '6', '5'], 'time': [7505, 13346, 16502, 18553, 26497]}, 'edge': {'target': [], 'time': []}}, 'mouseover': {'state': {'target': ['9', '11', '10', '0', '1', '3', '6', '8', '6', '7', '6', '6', '8', '5', '0'], 'time': [6793, 7044, 10379, 11119, 11279, 11446, 14180, 14496, 14897, 15947, 17364, 17949, 19917, 26060, 27603]}, 'edge': {'target': [], 'time': []}}, 'mouseout': {'state': {'target': ['10', '9', '0', '5', '0', '9', '11', '10', '0', '1', '3', '6', '8', '6', '7', '6', '6', '8', '5', '0'], 'time': [2307, 2541, 2574, 2924, 6727, 6876, 10370, 10395, 11145, 11328, 14104, 14214, 14847, 15906, 17306, 17631, 19834, 19999, 27544, 27652]}, 'edge': {'target': [], 'time': []}}}","[-2, 4, 48]","[26339, 2898, 1654]",0,0,50,"[None, None, None]","['', -4, -4, -24, -24, -2, 4, 48, -24, -2, -4, -24, 48]",2298697,39411,mouselab-mdp,False
611cccc7df12bfa05e6135e0,2,"[12068, 12966, 14286]","['up', 'up', 'left']",begin,"['0', '0', '1', '2', '4']","{'click': {'state': {'target': ['4'], 'time': [4625]}, 'edge': {'target': [], 'time': []}}, 'mouseover': {'state': {'target': ['1', '2', '4', '1', '2', '1'], 'time': [3743, 3810, 4093, 7819, 8012, 8865]}, 'edge': {'target': [], 'time': []}}, 'mouseout': {'state': {'target': ['0', '1', '2', '4', '1', '2'], 'time': [3702, 3793, 3977, 5879, 7928, 8836]}, 'edge': {'target': [], 'time': []}}}","[2, -8, 48]","[9012, 400, 817]",0,0,46,"[None, None, None]","['', 2, -8, -24, 48, -4, -8, 24, -48, 4, -8, -24, -24]",2315427,16541,mouselab-mdp,False
611cccc7df12bfa05e6135e0,3,"[23957, 24851, 26264]","['right', 'right', 'up']",begin,"['0', '0', '5', '6', '7']","{'click': {'state': {'target': ['3', '11', '7', '5', '9', '10', '6'], 'time': [4206, 7127, 9250, 12144, 13664, 17250, 19322]}, 'edge': {'target': [], 'time': []}}, 'mouseover': {'state': {'target': ['3', '1', '11', '7', '6', '8', '5', '0', '9', '10', '8', '6'], 'time': [3666, 6034, 6385, 8735, 10152, 10186, 11636, 12897, 12953, 15288, 18555, 18807]}, 'edge': {'target': [], 'time': []}}, 'mouseout': {'state': {'target': ['1', '0', '3', '1', '11', '7', '6', '8', '5', '0', '9', '10', '8', '6'], 'time': [880, 3574, 5967, 6066, 8142, 10114, 10169, 10218, 12878, 12920, 15254, 18446, 18616, 20257]}, 'edge': {'target': [], 'time': []}}}","[-2, 4, 48]","[20990, 390, 920]",0,0,48,"[None, None, None]","['', 2, 8, -48, 24, -2, 4, 48, 48, -2, -8, 48, 24]",2346485,30863,mouselab-mdp,False
611cccc7df12bfa05e6135e0,4,"[18321, 19744, 21136]","['left', 'left', 'up']",begin,"['0', '0', '9', '10', '11']","{'click': {'state': {'target': ['3', '12', '8', '7', '11', '4'], 'time': [4500, 6229, 7923, 9246, 10911, 12368]}, 'edge': {'target': [], 'time': []}}, 'mouseover': {'state': {'target': ['3', '1', '9', '12', '8', '6', '7', '1', '11', '11', '4', '9'], 'time': [3867, 5201, 5268, 5417, 7409, 8635, 8719, 9869, 9953, 10408, 11870, 13020]}, 'edge': {'target': [], 'time': []}}, 'mouseout': {'state': {'target': ['0', '3', '1', '9', '12', '8', '6', '7', '1', '11', '11', '4', '9'], 'time': [3699, 5167, 5217, 5301, 7026, 8619, 8669, 9837, 9886, 10020, 11638, 12988, 13038]}, 'edge': {'target': [], 'time': []}}}","[-2, 8, 24]","[15301, 919, 893]",0,0,29,"[None, None, None]","['', 2, -4, -48, -48, -2, -4, -24, -48, -2, 8, 24, 24]",2372808,26107,mouselab-mdp,False
611cccc7df12bfa05e6135e0,5,"[10203, 11247, 13045]","['up', 'up', 'right']",begin,"['0', '0', '1', '2', '3']","{'click': {'state': {'target': ['3', '4'], 'time': [4335, 5463]}, 'edge': {'target': [], 'time': []}}, 'mouseover': {'state': {'target': ['3', '3', '2', '4', '10', '12', '10', '11'], 'time': [3608, 3892, 4826, 4859, 7293, 7577, 7794, 8044]}, 'edge': {'target': [], 'time': []}}, 'mouseout': {'state': {'target': ['0', '3', '3', '2', '4', '10', '12', '10', '11'], 'time': [3545, 3625, 4809, 4844, 7151, 7427, 7760, 7894, 14403]}, 'edge': {'target': [], 'time': []}}}","[2, 4, 48]","[7195, 549, 1295]",0,0,57,"[None, None, None]","['', 2, 4, 48, 48, -2, 4, 48, -24, -4, 8, -48, 48]",2390134,17130,mouselab-mdp,False
611cccc7df12bfa05e6135e0,6,"[11668, 12980, 14323]","['right', 'right', 'up']",begin,"['0', '0', '5', '6', '7']","{'click': {'state': {'target': ['11', '7', '3', '4'], 'time': [3760, 5473, 7416, 8666]}, 'edge': {'target': [], 'time': []}}, 'mouseover': {'state': {'target': ['9', '11', '1', '7', '7', '6', '8', '3', '2', '4'], 'time': [2982, 3215, 4398, 4482, 4868, 6266, 6334, 6850, 8038, 8184]}, 'edge': {'target': [], 'time': []}}, 'mouseout': {'state': {'target': ['0', '9', '11', '1', '7', '7', '6', '8', '3', '2', '4'], 'time': [2932, 3065, 4383, 4432, 4582, 6234, 6300, 6740, 8008, 8083, 9474]}, 'edge': {'target': [], 'time': []}}}","[4, -8, 48]","[9216, 809, 851]",0,0,45,"[None, None, None]","['', -2, -8, 24, -24, 4, -8, 48, 48, -4, -8, -24, -48]",2406368,16029,mouselab-mdp,False
611cccc7df12bfa05e6135e0,7,"[16714, 17630, 18768]","['up', 'up', 'right']",begin,"['0', '0', '1', '2', '3']","{'click': {'state': {'target': ['12', '8', '7', '11', '3', '4'], 'time': [5181, 6653, 7810, 9442, 10813, 12237]}, 'edge': {'target': [], 'time': []}}, 'mouseover': {'state': {'target': ['9', '10', '12', '8', '6', '7', '11', '11', '3', '2', '4', '0'], 'time': [4015, 4332, 4699, 6241, 7234, 7367, 8517, 8951, 10235, 11468, 11704, 12919]}, 'edge': {'target': [], 'time': []}}, 'mouseout': {'state': {'target': ['0', '9', '10', '12', '8', '6', '7', '11', '11', '3', '2', '4', '0'], 'time': [3982, 4133, 4599, 5788, 7200, 7284, 8407, 8702, 10108, 11420, 11603, 12861, 12937]}, 'edge': {'target': [], 'time': []}}}","[2, 4, 48]","[13322, 422, 643]",0,0,53,"[None, None, None]","['', 2, 4, 48, 24, -2, -8, 24, 24, -2, 4, -48, 24]",2427327,20748,mouselab-mdp,False
611cccc7df12bfa05e6135e0,8,"[16525, 17474, 19117]","['right', 'right', 'down']",begin,"['0', '0', '5', '6', '8']","{'click': {'state': {'target': ['3', '8', '7', '4'], 'time': [8175, 10264, 11689, 12840]}, 'edge': {'target': [], 'time': []}}, 'mouseover': {'state': {'target': ['3', '7', '8', '6', '7', '1', '4', '11', '10'], 'time': [7652, 9303, 9687, 11055, 11172, 12238, 12404, 13537, 13787]}, 'edge': {'target': [], 'time': []}}, 'mouseout': {'state': {'target': ['0', '0', '3', '7', '8', '6', '7', '1', '4', '11', '10'], 'time': [1048, 7444, 9271, 9320, 11045, 11087, 12191, 12271, 13404, 13672, 13821]}, 'edge': {'target': [], 'time': []}}}","[2, 4, 48]","[11016, 449, 1142]",0,0,55,"[None, None, None]","['', -4, 8, -24, -24, 2, 4, 48, 48, -2, 4, 24, -48]",2449144,21607,mouselab-mdp,False
611cccc7df12bfa05e6135e0,9,"[59820, 61004, 62283]","['left', 'left', 'down']",begin,"['0', '0', '9', '10', '12']","{'click': {'state': {'target': ['3', '8', '7', '11', '12'], 'time': [52131, 53512, 54966, 56426, 57628]}, 'edge': {'target': [], 'time': []}}, 'mouseover': {'state': {'target': ['1', '2', '3', '6', '8', '6', '7', '9', '10', '11', '10', '12', '0'], 'time': [51266, 51550, 51667, 52750, 52950, 54190, 54484, 55635, 55684, 55951, 56968, 57086, 58419]}, 'edge': {'target': [], 'time': []}}, 'mouseout': {'state': {'target': ['0', '1', '2', '3', '6', '8', '6', '7', '9', '10', '11', '10', '12'], 'time': [51156, 51433, 51566, 52668, 52850, 54174, 54217, 55581, 55651, 55718, 56952, 57019, 58357]}, 'edge': {'target': [], 'time': []}}}","[2, -4, 48]","[9500, 681, 777]",0,0,46,"[None, None, None]","['', -4, 4, -48, -48, -4, 8, -24, 24, 2, -4, 48, 48]",2518426,69107,mouselab-mdp,False
611cccc7df12bfa05e6135e0,10,"[16683, 17755, 19175]","['up', 'up', 'right']",begin,"['0', '0', '1', '2', '3']","{'click': {'state': {'target': ['4', '11', '7', '3'], 'time': [5270, 7005, 9011, 10245]}, 'edge': {'target': [], 'time': []}}, 'mouseover': {'state': {'target': ['4', '11', '0', '5', '7', '7', '3', '6', '8'], 'time': [4728, 6527, 7744, 7794, 8078, 8595, 9728, 10863, 10929]}, 'edge': {'target': [], 'time': []}}, 'mouseout': {'state': {'target': ['0', '4', '11', '0', '5', '7', '7', '3', '6', '8'], 'time': [4242, 6281, 7700, 7761, 7877, 8262, 9698, 10836, 10895, 11563]}, 'edge': {'target': [], 'time': []}}}","[4, -4, 48]","[15653, 557, 923]",0,0,49,"[None, None, None]","['', 4, -4, 48, -48, 2, 8, -48, 24, -2, -4, -24, 48]",2539797,21178,mouselab-mdp,False
611cccc7df12bfa05e6135e0,11,"[17000, 17998, 18968]","['up', 'up', 'right']",test,"['0', '0', '1', '2', '3']","{'click': {'state': {'target': ['3', '8', '11', '7', '4', '12'], 'time': [5674, 7158, 8569, 10066, 11486, 12662]}, 'edge': {'target': [], 'time': []}}, 'mouseover': {'state': {'target': ['1', '3', '7', '6', '8', '9', '10', '11', '7', '7', '4', '4', '12'], 'time': [4747, 4880, 6331, 6398, 6665, 7781, 7832, 8048, 9282, 9670, 10632, 10989, 12150]}, 'edge': {'target': [], 'time': []}}, 'mouseout': {'state': {'target': ['0', '1', '3', '7', '6', '8', '9', '10', '11', '7', '7', '4', '4', '12', '8'], 'time': [4263, 4780, 6305, 6364, 6531, 7706, 7798, 7898, 9202, 9332, 10581, 10683, 11979, 13326, 14084]}, 'edge': {'target': [], 'time': []}}}","[-4, 4, 24]","[14024, 493, 479]",0,0,23,"[None, None, None]","['', -4, 4, 24, 24, -2, 8, 24, -48, 4, -8, -24, -48]",2561727,21718,mouselab-mdp,False
611cccc7df12bfa05e6135e0,12,"[15180, 16104, 18230]","['up', 'up', 'right']",test,"['0', '0', '1', '2', '3']","{'click': {'state': {'target': ['3', '7', '12', '8', '4', '11'], 'time': [3836, 5163, 6535, 8770, 10202, 11411]}, 'edge': {'target': [], 'time': []}}, 'mouseover': {'state': {'target': ['3', '7', '7', '12', '4', '1', '5', '8', '4', '11'], 'time': [3413, 4531, 4730, 6198, 7448, 8065, 8115, 8231, 9882, 11067]}, 'edge': {'target': [], 'time': []}}, 'mouseout': {'state': {'target': ['0', '3', '7', '7', '12', '4', '1', '5', '8', '4', '11'], 'time': [3038, 4414, 4547, 5788, 7221, 8032, 8082, 8132, 9439, 10923, 12269]}, 'edge': {'target': [], 'time': []}}}","[-2, -8, 24]","[13605, 428, 1625]",0,0,13,"[None, None, None]","['', -2, -8, 24, -48, 4, 4, -24, -48, -2, -8, -48, 24]",2582092,20139,mouselab-mdp,False
611cccc7df12bfa05e6135e0,13,"[24321, 25212, 26595]","['up', 'up', 'right']",test,"['0', '0', '1', '2', '3']","{'click': {'state': {'target': ['11', '4', '7', '3', '8', '12', '2', '1', '10', '9'], 'time': [6353, 8033, 9674, 10835, 12221, 13680, 16035, 17291, 18788, 20210]}, 'edge': {'target': [], 'time': []}}, 'mouseover': {'state': {'target': ['9', '11', '4', '2', '3', '7', '3', '6', '8', '12', '1', '2', '1', '10', '9', '0', '5'], 'time': [4645, 4711, 7363, 8666, 8728, 9028, 10345, 11430, 11780, 13281, 14848, 15398, 16668, 18183, 19656, 21084, 21284]}, 'edge': {'target': [], 'time': []}}, 'mouseout': {'state': {'target': ['0', '9', '11', '4', '2', '3', '7', '3', '6', '8', '12', '1', '2', '1', '10', '9', '0', '5', '1', '2', '9'], 'time': [991, 4661, 7114, 8653, 8712, 8795, 10320, 11396, 11463, 12798, 14398, 15348, 16615, 17967, 19370, 21036, 21183, 21740, 22017, 28061, 28120]}, 'edge': {'target': [], 'time': []}}}","[-4, -4, 24]","[20687, 390, 891]",0,0,11,"[None, None, None]","['', -4, -4, 24, -48, 2, 4, -24, -48, -2, -8, -24, 24]",2611227,28928,mouselab-mdp,False
611cccc7df12bfa05e6135e0,14,"[21358, 22769, 23543]","['left', 'left', 'down']",test,"['0', '0', '9', '10', '12']","{'click': {'state': {'target': ['3', '12', '7', '11', '4', '8', '9'], 'time': [5887, 7846, 9293, 10519, 11981, 13424, 16427]}, 'edge': {'target': [], 'time': []}}, 'mouseover': {'state': {'target': ['1', '2', '3', '1', '11', '10', '12', '5', '7', '11', '1', '2', '4', '6', '8', '9', '9', '0', '5', '1', '9', '10'], 'time': [4437, 5320, 5420, 6605, 6921, 6988, 7271, 8555, 8822, 9937, 11172, 11355, 11572, 12522, 12974, 14340, 14740, 14790, 14991, 15075, 15823, 17442]}, 'edge': {'target': [], 'time': []}}, 'mouseout': {'state': {'target': ['0', '1', '2', '3', '1', '11', '10', '12', '5', '7', '11', '1', '2', '4', '6', '8', '9', '9', '0', '5', '1', '9', '10'], 'time': [1135, 5020, 5354, 6554, 6654, 6938, 7037, 8460, 8605, 9828, 11159, 11206, 11371, 12479, 12539, 14156, 14390, 14773, 14807, 15024, 15523, 17358, 18250]}, 'edge': {'target': [], 'time': []}}}","[2, -4, 24]","[19659, 907, 280]",0,0,20,"[None, None, None]","['', -4, 8, -48, -48, -4, 4, -24, -48, 2, -4, -24, 24]",2637376,25957,mouselab-mdp,False
611cccc7df12bfa05e6135e0,15,"[21681, 22570, 27262]","['left', 'left', 'up']",test,"['0', '0', '9', '10', '11']","{'click': {'state': {'target': ['4', '7', '11', '3', '12', '8', '9'], 'time': [2818, 4690, 5973, 11009, 12389, 13848, 18463]}, 'edge': {'target': [], 'time': []}}, 'mouseover': {'state': {'target': ['4', '1', '6', '7', '7', '1', '11', '0', '12', '12', '9', '1', '3', '0', '12', '8', '9'], 'time': [2294, 3461, 3645, 3928, 4227, 5245, 5612, 7097, 8848, 9570, 10131, 10165, 10248, 11698, 12016, 13401, 17952]}, 'edge': {'target': [], 'time': []}}, 'mouseout': {'state': {'target': ['0', '0', '4', '1', '6', '7', '7', '1', '11', '0', '12', '12', '9', '1', '3', '0', '12', '8', '9', '9'], 'time': [692, 2068, 3429, 3478, 3879, 4028, 5198, 5279, 6569, 8617, 8881, 10117, 10148, 10181, 11649, 11715, 12989, 14574, 19075, 19435]}, 'edge': {'target': [], 'time': []}}}","[2, 4, 24]","[20054, 398, 4189]",0,0,28,"[None, None, None]","['', -4, 8, 24, -24, 4, 8, -24, -48, 2, 4, 24, -24]",2667221,29651,mouselab-mdp,False
611cccc7df12bfa05e6135e0,16,"[26559, 27313, 28367]","['left', 'left', 'down']",test,"['0', '0', '9', '10', '12']","{'click': {'state': {'target': ['3', '11', '7', '8', '12', '9', '10', '2', '1'], 'time': [4272, 6542, 8097, 11432, 12898, 14884, 16087, 17678, 18698]}, 'edge': {'target': [], 'time': []}}, 'mouseover': {'state': {'target': ['1', '2', '1', '0', '3', '3', '2', '4', '11', '1', '7', '6', '8', '12', '9', '10', '2', '1', '0', '5', '5'], 'time': [2419, 2719, 3004, 3086, 3453, 3903, 4937, 5054, 6071, 7138, 7571, 8873, 10808, 12458, 13842, 15609, 17009, 18293, 19297, 21662, 22079]}, 'edge': {'target': [], 'time': []}}, 'mouseout': {'state': {'target': ['0', '1', '2', '1', '0', '3', '3', '2', '4', '11', '1', '7', '6', '8', '12', '9', '10', '2', '1', '0', '5'], 'time': [2336, 2519, 2987, 3036, 3386, 3620, 4887, 4987, 5945, 7095, 7171, 8856, 8891, 11924, 13659, 15559, 16759, 18244, 19283, 19312, 21679]}, 'edge': {'target': [], 'time': []}}}","[-4, -4, 24]","[24758, 263, 550]",0,0,12,"[None, None, None]","['', -4, -4, 24, 48, 4, -4, -24, 24, -4, -4, 24, 24]",2698017,30592,mouselab-mdp,False
611cccc7df12bfa05e6135e0,17,"[15576, 16846, 17486]","['up', 'up', 'left']",test,"['0', '0', '1', '2', '4']","{'click': {'state': {'target': ['3', '8', '12', '11', '4', '7'], 'time': [4906, 6531, 8153, 9381, 10784, 12296]}, 'edge': {'target': [], 'time': []}}, 'mouseover': {'state': {'target': ['1', '1', '3', '6', '8', '9', '10', '12', '10', '11', '4', '4', '2', '7', '6', '5'], 'time': [2620, 3305, 4270, 5687, 6071, 7455, 7607, 7806, 8722, 8978, 9906, 10562, 11432, 11877, 13041, 13141]}, 'edge': {'target': [], 'time': []}}, 'mouseout': {'state': {'target': ['5', '0', '1', '1', '3', '6', '8', '9', '10', '12', '10', '11', '4', '4', '2', '3', '7', '6', '5'], 'time': [635, 2327, 2703, 3389, 5510, 5704, 7195, 7521, 7624, 8706, 8756, 9889, 9975, 11415, 11457, 11507, 12991, 13091, 13191]}, 'edge': {'target': [], 'time': []}}}","[2, 4, 24]","[14112, 768, 141]",0,0,29,"[None, None, None]","['', 2, 4, -48, 24, -4, -4, -24, 24, 2, -4, 24, -24]",2717651,19412,mouselab-mdp,False
611cccc7df12bfa05e6135e0,18,"[16599, 17530, 18259]","['right', 'right', 'down']",test,"['0', '0', '5', '6', '8']","{'click': {'state': {'target': ['3', '11', '7', '8', '12', '4'], 'time': [3912, 5818, 7378, 8516, 9680, 11153]}, 'edge': {'target': [], 'time': []}}, 'mouseover': {'state': {'target': ['3', '4', '11', '1', '7', '7', '6', '8', '12', '2', '4', '4'], 'time': [3451, 4718, 5436, 6319, 6369, 6828, 7874, 7986, 9088, 10387, 10587, 10688]}, 'edge': {'target': [], 'time': []}}, 'mouseout': {'state': {'target': ['0', '3', '4', '11', '1', '7', '7', '6', '8', '12', '2', '4', '4'], 'time': [930, 4585, 5138, 6286, 6336, 6435, 7860, 7936, 8944, 10296, 10488, 10605, 19499]}, 'edge': {'target': [], 'time': []}}}","[-2, -8, 24]","[15205, 437, 232]",0,0,13,"[None, None, None]","['', 2, -4, -24, -24, -2, -8, -48, 24, -4, -8, 24, 24]",2738047,20197,mouselab-mdp,False
611cccc7df12bfa05e6135e0,19,"[11751, 12565, 14232]","['right', 'right', 'down']",test,"['0', '0', '5', '6', '8']","{'click': {'state': {'target': ['3', '12', '7', '8'], 'time': [4888, 6318, 7674, 8958]}, 'edge': {'target': [], 'time': []}}, 'mouseover': {'state': {'target': ['1', '2', '3', '2', '12', '7', '7', '6', '8', '0', '9'], 'time': [4019, 4267, 4433, 5434, 5917, 6935, 7270, 8251, 8403, 9404, 9718]}, 'edge': {'target': [], 'time': []}}, 'mouseout': {'state': {'target': ['9', '0', '1', '2', '3', '2', '12', '7', '7', '6', '8', '0', '9'], 'time': [930, 3072, 4133, 4334, 5408, 5466, 6842, 6968, 8226, 8301, 9379, 9419, 9753]}, 'edge': {'target': [], 'time': []}}}","[4, 4, 48]","[9573, 252, 1176]",0,0,57,"[None, None, None]","['', -4, -4, 24, -24, 4, 4, 24, 48, 4, -4, 48, -48]",2754499,16221,mouselab-mdp,False
611cccc7df12bfa05e6135e0,20,"[12111, 12751, 14445]","['right', 'right', 'down']",test,"['0', '0', '5', '6', '8']","{'click': {'state': {'target': ['4', '11', '7', '3', '8'], 'time': [4139, 5407, 6944, 8274, 9577]}, 'edge': {'target': [], 'time': []}}, 'mouseover': {'state': {'target': ['1', '4', '11', '5', '7', '3', '6', '8'], 'time': [3466, 3730, 4982, 6199, 6533, 7799, 8883, 9183]}, 'edge': {'target': [], 'time': []}}, 'mouseout': {'state': {'target': ['1', '4', '11', '5', '7', '3', '6', '8', '0', '5', '6', '5', '0', '9', '12'], 'time': [3519, 4798, 6105, 6216, 7584, 8817, 8916, 10167, 16854, 16870, 17555, 17788, 18364, 18404, 19885]}, 'edge': {'target': [], 'time': []}}}","[-4, -8, 48]","[9649, 147, 1192]",0,0,36,"[None, None, None]","['', -4, 4, -24, -24, -4, -8, 24, 48, 4, -4, 24, 48]",2775185,20480,mouselab-mdp,False
611cccc7df12bfa05e6135e0,21,"[14419, 15237, 16205]","['right', 'right', 'up']",test,"['0', '0', '5', '6', '7']","{'click': {'state': {'target': ['4', '11', '12', '3', '7', '8'], 'time': [3602, 4730, 5736, 6991, 8053, 9333]}, 'edge': {'target': [], 'time': []}}, 'mouseover': {'state': {'target': ['1', '4', '11', '10', '12', '9', '1', '3', '3', '7', '6', '8', '5', '5'], 'time': [2895, 3211, 4361, 5179, 5295, 6155, 6180, 6214, 6563, 7430, 8564, 8931, 9964, 10437]}, 'edge': {'target': [], 'time': []}}, 'mouseout': {'state': {'target': ['0', '1', '4', '11', '10', '12', '9', '1', '3', '3', '7', '6', '8', '5'], 'time': [1610, 3013, 4028, 5163, 5213, 6146, 6168, 6198, 6230, 7380, 8514, 8730, 9899, 10136]}, 'edge': {'target': [], 'time': []}}}","[4, 4, 48]","[12208, 316, 469]",0,0,55,"[None, None, None]","['', 2, -4, -48, 24, 4, 4, 48, -48, -2, -4, -24, -48]",2793667,18268,mouselab-mdp,False
611cccc7df12bfa05e6135e0,22,"[6342, 7113, 8093]","['up', 'up', 'right']",test,"['0', '0', '1', '2', '3']","{'click': {'state': {'target': ['3'], 'time': [4653]}, 'edge': {'target': [], 'time': []}}, 'mouseover': {'state': {'target': ['3', '1'], 'time': [4249, 5199]}, 'edge': {'target': [], 'time': []}}, 'mouseout': {'state': {'target': ['5', '0', '3', '1', '0'], 'time': [2359, 3867, 5133, 5269, 14067]}, 'edge': {'target': [], 'time': []}}}","[2, 8, 48]","[3178, 260, 489]",0,0,62,"[None, None, None]","['', 2, 8, 48, -24, -4, 4, 48, 24, -2, 8, 24, 24]",2926035,132148,mouselab-mdp,False
611cccc7df12bfa05e6135e0,23,"[7343, 8190, 9699]","['up', 'up', 'right']",test,"['0', '0', '1', '2', '3']","{'click': {'state': {'target': ['3'], 'time': [4443]}, 'edge': {'target': [], 'time': []}}, 'mouseover': {'state': {'target': ['3', '6', '8'], 'time': [3837, 5071, 5121]}, 'edge': {'target': [], 'time': []}}, 'mouseout': {'state': {'target': ['0', '0', '3', '6', '8'], 'time': [1469, 3611, 4988, 5105, 5171]}, 'edge': {'target': [], 'time': []}}}","[-4, -8, 48]","[4614, 349, 1006]",0,0,40,"[None, None, None]","['', -4, -8, 48, 48, -4, 4, 48, -24, 4, 8, -24, -48]",2941069,14810,mouselab-mdp,False
