pid,trial_index,action_time,actions,block,path,queries,reward,rt,condition,bonus,score,simulation_mode,state_rewards,time_elapsed,trialTime,trial_type
0,0,"[4512, 6790, 8938]","['left', 'left', 'down']",training,"['0', '9', '10', '12']","{'click': {'state': {'target': [], 'time': []}, 'edge': {'target': [], 'time': []}}, 'mouseover': {'state': {'target': ['9', '1'], 'time': [1421, 2869]}, 'edge': {'target': [], 'time': []}}, 'mouseout': {'state': {'target': ['9', '1'], 'time': [1487, 3605]}, 'edge': {'target': [], 'time': []}}}","[34, 6, 6]","[44670.199999999255, 17380.5, 4499]",1,0,46,"[None, None, None]","['', 34, -11, 3, -3, 34, 11, -6, 3, 34, 6, -3, 6]",44683,[],mouselab-mdp
0,1,"[2590, 3855, 5027]","['up', 'up', 'right']",training,"['0', '1', '2', '3']","{'click': {'state': {'target': [], 'time': []}, 'edge': {'target': [], 'time': []}}, 'mouseover': {'state': {'target': ['0', '9', '10'], 'time': [None, 532, 910]}, 'edge': {'target': [], 'time': []}}, 'mouseout': {'state': {'target': ['0', '9', '10'], 'time': [490, 566, 948]}, 'edge': {'target': [], 'time': []}}}","[34, 6, 6]","[1754.7000000011176, 1609, 2580.0999999996275]",1,[],46,"[None, None, None]","['', 34, 6, 6, -3, 67, 6, 6, 3, -34, 6, -3, -6]",62082,[],mouselab-mdp
0,2,"[1415, 3410, 5921]","['up', 'up', 'right']",training,"['0', '1', '2', '3']","{'click': {'state': {'target': [], 'time': []}, 'edge': {'target': [], 'time': []}}, 'mouseover': {'state': {'target': ['10', '9'], 'time': [233, 289]}, 'edge': {'target': [], 'time': []}}, 'mouseout': {'state': {'target': ['10', '9'], 'time': [267, 312]}, 'edge': {'target': [], 'time': []}}}","[34, -11, -6]","[731.7999999988824, 634.1000000014901, 1407.0999999996275]",1,[],17,"[None, None, None]","['', 34, -11, -6, -3, 34, 11, 3, 6, -67, 6, 6, -6]",73715,[],mouselab-mdp
0,3,"[1707, 2688, 3799]","['right', 'right', 'up']",training,"['0', '5', '6', '7']","{'click': {'state': {'target': [], 'time': []}, 'edge': {'target': [], 'time': []}}, 'mouseover': {'state': {'target': [], 'time': []}, 'edge': {'target': [], 'time': []}}, 'mouseout': {'state': {'target': [], 'time': []}, 'edge': {'target': [], 'time': []}}}","[67, -6, 3]","[1456.2999999988824, 1970.6000000014901, 1691.300000000745]",1,[],64,"[None, None, None]","['', -34, 6, 3, 3, 67, -6, 3, -3, 34, 6, 3, 3]",81121,[],mouselab-mdp
0,4,"[775, 1728, 2551]","['right', 'right', 'down']",training,"['0', '5', '6', '8']","{'click': {'state': {'target': [], 'time': []}, 'edge': {'target': [], 'time': []}}, 'mouseover': {'state': {'target': [], 'time': []}, 'edge': {'target': [], 'time': []}}, 'mouseout': {'state': {'target': [], 'time': []}, 'edge': {'target': [], 'time': []}}}","[67, -11, 6]","[438.69999999925494, 582.4000000003725, 765.2999999988824]",1,[],62,"[None, None, None]","['', -34, -6, -3, -6, 67, -11, -3, 6, -67, 6, 6, 3]",89225,[],mouselab-mdp
0,5,"[498, 1582, 2786]","['left', 'left', 'up']",training,"['0', '9', '10', '11']","{'click': {'state': {'target': [], 'time': []}, 'edge': {'target': [], 'time': []}}, 'mouseover': {'state': {'target': [], 'time': []}, 'edge': {'target': [], 'time': []}}, 'mouseout': {'state': {'target': [], 'time': []}, 'edge': {'target': [], 'time': []}}}","[-67, 6, -3]","[411.59999999962747, 267.59999999962747, 491]",1,[],-64,"[None, None, None]","['', -67, -6, 3, 6, -67, -6, -6, -6, -67, 6, -3, -6]",95350,[],mouselab-mdp
0,6,"[4895, 7962, 13620]","['left', 'left', 'up']",training,"['0', '9', '10', '11']","{'click': {'state': {'target': ['5', '1', '9'], 'time': [1231, 2057, 2849]}, 'edge': {'target': [], 'time': []}}, 'mouseover': {'state': {'target': ['0', '5', '1', '9'], 'time': [604, 868, 1652, 2419]}, 'edge': {'target': [], 'time': []}}, 'mouseout': {'state': {'target': ['0', '5', '1', '9', '9', '10', '10', '11', '10', '10', '11'], 'time': [655, 1604, 2333, 3095, 6603, 7234, 8855, 11012, 11178, 11581, 13090]}, 'edge': {'target': [], 'time': []}}}","[67, 6, 6]","[554.1999999992549, 670.9000000003725, 4885.89999999851]",1,[],76,"[None, None, None]","['', 67, 6, 3, 3, -34, -11, 6, 6, 67, 6, 6, 6]",99655,[],mouselab-mdp
0,7,"[16927, 19740, 20343]","['left', 'left', 'down']",training,"['0', '9', '10', '12']","{'click': {'state': {'target': ['1', '9', '5', '2', '10', '6', '3', '4'], 'time': [1494, 2636, 3791, 7686, 9049, 10092, 12656, 13660]}, 'edge': {'target': [], 'time': []}}, 'mouseover': {'state': {'target': ['1', '9', '6', '5', '10', '2', '10', '6', '3', '4', '11'], 'time': [776, 2061, 3211, 3512, 4820, 7120, 8559, 9525, 12218, 13258, 14619]}, 'edge': {'target': [], 'time': []}}, 'mouseout': {'state': {'target': ['1', '9', '6', '5', '10', '2', '10', '9', '6', '6', '5', '3', '4', '11', '12'], 'time': [1950, 3130, 3448, 4492, 4919, 8167, 9439, 9481, 10499, 11035, 11916, 13025, 14051, 18272, 19237]}, 'edge': {'target': [], 'time': []}}}","[34, 11, 3]","[2521.5, 5122.299999998882, 16919.199999999255]",1,[],40,"[None, None, None]","['', -67, 6, 3, 6, -67, -11, 6, -3, 34, 11, 3, 3]",104259,[],mouselab-mdp
0,8,"[23045, 26962, 27752]","['left', 'left', 'up']",training,"['0', '9', '10', '11']","{'click': {'state': {'target': ['9', '1', '5', '6', '2', '10', '11', '12', '4', '3', '7', '8'], 'time': [1853, 2866, 3737, 7907, 8860, 10184, 11040, 11822, 14088, 14834, 15596, 16400]}, 'edge': {'target': [], 'time': []}}, 'mouseover': {'state': {'target': ['10', '9', '1', '5', '10', '4', '4', '2', '7', '6', '2', '10', '11', '12', '4', '3', '7', '8'], 'time': [1172, 1439, 2453, 3256, 4837, 5318, 5905, 6635, 7489, 7547, 8547, 9651, 10534, 11381, 13732, 14484, 15165, 15911]}, 'edge': {'target': [], 'time': []}}, 'mouseout': {'state': {'target': ['10', '9', '1', '5', '9', '10', '4', '4', '2', '1', '7', '6', '2', '10', '11', '12', '11', '4', '3', '7', '6', '8', '8'], 'time': [1246, 2259, 3183, 4390, 4473, 5264, 5371, 6518, 6691, 7197, 7541, 8140, 9313, 10485, 11290, 11999, 13127, 14425, 15124, 15779, 15848, 16854, 29128]}, 'edge': {'target': [], 'time': []}}}","[34, -6, 3]","[2272.5999999996275, 83.59999999962747, 23038.299999998882]",1,[],19,"[None, None, None]","['', -67, 6, 3, -6, -67, 6, 3, 3, 34, -6, 3, 3]",121830,[],mouselab-mdp
0,9,"[18230, 19005, 19612]","['right', 'right', 'down']",training,"['0', '5', '6', '8']","{'click': {'state': {'target': ['5', '1', '9', '10', '2', '6', '8', '7', '11', '12', '4', '3'], 'time': [1681, 2563, 3388, 5718, 6916, 8269, 9186, 10524, 14553, 15350, 16524, 17311]}, 'edge': {'target': [], 'time': []}}, 'mouseover': {'state': {'target': ['5', '1', '9', '6', '10', '2', '3', '7', '6', '6', '8', '7', '7', '7', '11', '12', '4', '3'], 'time': [1362, 2097, 2962, 4672, 5357, 6164, 7251, 7461, 7562, 7931, 8860, 9796, 9911, 10242, 14291, 15005, 16073, 16837]}, 'edge': {'target': [], 'time': []}}, 'mouseout': {'state': {'target': ['5', '1', '9', '6', '9', '10', '2', '3', '7', '6', '6', '8', '6', '7', '7', '7', '11', '10', '12', '4', '3'], 'time': [1951, 2864, 3925, 4842, 5301, 6098, 7209, 7299, 7504, 7644, 8793, 9694, 9754, 9839, 9962, 10742, 14739, 14822, 15802, 16765, 17507]}, 'edge': {'target': [], 'time': []}}}","[67, 11, -6]","[3393.60000000149, 254.09999999962747, 18222.699999999255]",1,[],60,"[None, None, None]","['', -67, 6, 6, 3, 67, 11, -6, -6, -34, 11, -6, -6]",144055,[],mouselab-mdp
0,10,"[3929, 4857, 7817]","['right', 'right', 'down']",training,"['0', '5', '6', '8']","{'click': {'state': {'target': ['5', '1', '9'], 'time': [1087, 2087, 2779]}, 'edge': {'target': [], 'time': []}}, 'mouseover': {'state': {'target': ['5', '1', '9'], 'time': [741, 1610, 2459]}, 'edge': {'target': [], 'time': []}}, 'mouseout': {'state': {'target': ['5', '1', '9', '8'], 'time': [1558, 2390, 3341, 8497]}, 'edge': {'target': [], 'time': []}}}","[67, 11, -3]","[218.30000000074506, 63.69999999925494, 3921.7999999988824]",1,[],72,"[None, None, None]","['', -34, -6, 6, 3, 67, 11, -3, -3, -34, 11, 3, 6]",173905,[],mouselab-mdp
0,11,"[2095, 4658, 5777]","['right', 'right', 'down']",training,"['0', '5', '6', '8']","{'click': {'state': {'target': ['5'], 'time': [1505]}, 'edge': {'target': [], 'time': []}}, 'mouseover': {'state': {'target': ['5'], 'time': [726]}, 'edge': {'target': [], 'time': []}}, 'mouseout': {'state': {'target': ['5', '6'], 'time': [1775, 4244]}, 'edge': {'target': [], 'time': []}}}","[67, 11, 3]","[378, 2398.4000000003725, 2086.5999999996275]",1,[],80,"[None, None, None]","['', -67, 6, 6, -6, 67, 11, -6, 3, 67, 6, -3, -3]",195102,[],mouselab-mdp
0,12,"[11961, 12997, 13589]","['left', 'left', 'up']",training,"['0', '9', '10', '11']","{'click': {'state': {'target': ['5', '1', '9', '3', '7', '8', '4', '11', '10', '12'], 'time': [1306, 2225, 2931, 4474, 5892, 6341, 8497, 9429, 10325, 10879]}, 'edge': {'target': [], 'time': []}}, 'mouseover': {'state': {'target': ['5', '0', '0', '5', '1', '9', '2', '3', '7', '8', '4', '11', '10', '12'], 'time': [143, 564, 738, 795, 1834, 2558, 3571, 4159, 4823, 6021, 7902, 8984, 9922, 10563]}, 'edge': {'target': [], 'time': []}}, 'mouseout': {'state': {'target': ['5', '0', '0', '5', '1', '9', '2', '3', '7', '8', '5', '5', '4', '11', '10', '12'], 'time': [209, 615, 789, 1773, 2478, 3242, 4099, 4758, 6015, 6938, 7084, 7416, 8837, 9875, 10500, 11515]}, 'edge': {'target': [], 'time': []}}}","[67, 6, 6]","[2003.5, 566.7999999988824, 11954.5]",1,[],69,"[None, None, None]","['', -67, -11, 3, 6, -67, 6, -6, -6, 67, 6, 6, -3]",204937,[],mouselab-mdp
0,13,"[5143, 7412, 8264]","['right', 'right', 'up']",training,"['0', '5', '6', '7']","{'click': {'state': {'target': ['9', '1', '5'], 'time': [3247, 4158, 4820]}, 'edge': {'target': [], 'time': []}}, 'mouseover': {'state': {'target': ['11', '10', '9', '9', '1', '5'], 'time': [1420, 1570, 2104, 2918, 3652, 4462]}, 'edge': {'target': [], 'time': []}}, 'mouseout': {'state': {'target': ['11', '10', '9', '9', '1', '5'], 'time': [1509, 2038, 2277, 3581, 4386, 6702]}, 'edge': {'target': [], 'time': []}}}","[-67, 6, -3]","[466.7999999988824, 36.5, 5136.699999999255]",1,[],-67,"[None, None, None]","['', -34, -11, 6, 3, -67, 6, -3, -3, -34, -11, -3, -3]",212605,[],mouselab-mdp
0,14,"[4132, 5145, 5905]","['up', 'up', 'right']",training,"['0', '1', '2', '3']","{'click': {'state': {'target': ['5', '1', '9'], 'time': [1377, 2911, 3595]}, 'edge': {'target': [], 'time': []}}, 'mouseover': {'state': {'target': ['6', '5', '1', '1', '9'], 'time': [None, 1020, 1716, 2581, 3184]}, 'edge': {'target': [], 'time': []}}, 'mouseout': {'state': {'target': ['6', '5', '1', '1'], 'time': [169, 1640, 1801, 3105]}, 'edge': {'target': [], 'time': []}}}","[67, 6, 3]","[1716.300000000745, 317.1000000014901, 4125.4000000003725]",1,[],73,"[None, None, None]","['', 67, 6, 3, -6, -34, 6, -3, -3, -34, -6, -6, 3]",228850,[],mouselab-mdp
0,15,"[7624, 8279, 8923]","['up', 'up', 'left']",training,"['0', '1', '2', '4']","{'click': {'state': {'target': ['1', '9', '5', '3', '4'], 'time': [1370, 2029, 3485, 5189, 6627]}, 'edge': {'target': [], 'time': []}}, 'mouseover': {'state': {'target': ['9', '1', '9', '5', '5', '7', '2', '3', '4'], 'time': [None, 889, 1649, 2775, 3171, 3977, 4327, 4797, 5819]}, 'edge': {'target': [], 'time': []}}, 'mouseout': {'state': {'target': ['9', '1', '9', '5', '5', '7', '2', '3'], 'time': [496, 1588, 2554, 2841, 3906, 4048, 4729, 5722]}, 'edge': {'target': [], 'time': []}}}","[67, 11, 6]","[472.7000000011176, 213.60000000149012, 7618.5999999996275]",1,[],79,"[None, None, None]","['', 67, 11, -6, 6, -34, -11, 6, 3, -34, -11, 3, 6]",238716,[],mouselab-mdp
0,16,"[15209, 16470, 17333]","['up', 'up', 'left']",training,"['0', '1', '2', '4']","{'click': {'state': {'target': ['1', '5', '9', '4', '3', '7', '8', '6', '11', '10', '12'], 'time': [1544, 2865, 3905, 5466, 6210, 7909, 8661, 10078, 11626, 13127, 13959]}, 'edge': {'target': [], 'time': []}}, 'mouseover': {'state': {'target': ['4', '1', '0', '9', '1', '1', '5', '9', '4', '4', '3', '6', '7', '8', '6', '6', '11', '10', '12'], 'time': [None, 438, 668, 751, 983, 1185, 2464, 3304, 4768, 5101, 5808, 7238, 7400, 8248, 8988, 9622, 10975, 12199, 13656]}, 'edge': {'target': [], 'time': []}}, 'mouseout': {'state': {'target': ['4', '1', '0', '9', '1', '1', '5', '9', '9', '4', '4', '3', '6', '7', '8', '6', '6', '11', '10', '12', '11'], 'time': [305, 589, 745, 920, 1053, 2226, 3204, 4223, 4488, 4977, 5640, 7165, 7307, 8134, 8814, 9349, 10548, 12117, 13581, 14443, 14716]}, 'edge': {'target': [], 'time': []}}}","[34, -6, 3]","[100.5, 92.80000000074506, 15202.199999999255]",1,[],20,"[None, None, None]","['', 34, -6, 3, 3, -34, 11, -6, 6, -34, 6, -3, -6]",246401,[],mouselab-mdp
0,17,"[10640, 11315, 13111]","['left', 'left', 'up']",training,"['0', '9', '10', '11']","{'click': {'state': {'target': ['1', '9', '5', '8', '11', '12', '7'], 'time': [2119, 3170, 3928, 5484, 6502, 7431, 8460]}, 'edge': {'target': [], 'time': []}}, 'mouseover': {'state': {'target': ['1', '9', '5', '8', '11', '10', '12', '7', '7'], 'time': [1683, 2590, 3506, 5127, 6123, 6843, 6990, 7789, 8138]}, 'edge': {'target': [], 'time': []}}, 'mouseout': {'state': {'target': ['1', '9', '5', '8', '9', '11', '10', '12', '7', '7', '2', '2'], 'time': [2470, 3436, 4081, 5723, 5823, 6761, 6918, 7694, 8022, 8708, 14490, 14764]}, 'edge': {'target': [], 'time': []}}}","[34, -11, -3]","[667.7999999988824, 317.40000000037253, 10622.299999998882]",1,[],13,"[None, None, None]","['', -67, -11, 3, 6, 34, -6, -6, -6, 34, -11, -3, -3]",256990,[],mouselab-mdp
0,18,"[19313, 19989, 20783]","['left', 'left', 'up']",training,"['0', '9', '10', '11']","{'click': {'state': {'target': ['1', '9', '5', '7', '8', '6', '3', '2', '4', '11', '10', '12'], 'time': [1355, 2039, 2910, 3770, 4754, 5367, 6424, 7123, 7771, 8730, 9465, 10224]}, 'edge': {'target': [], 'time': []}}, 'mouseover': {'state': {'target': ['2', '1', '9', '5', '7', '6', '8', '6', '3', '2', '4', '11', '10', '12'], 'time': [None, 795, 1742, 2484, 3331, 4316, 4465, 5018, 5679, 6839, 7462, 8161, 9160, 9910]}, 'edge': {'target': [], 'time': []}}, 'mouseout': {'state': {'target': ['2', '1', '9', '5', '7', '6', '8', '6', '3', '2', '4', '11', '10', '12', '12'], 'time': [486, 1656, 2388, 3197, 4232, 4385, 4947, 5571, 6734, 7365, 8071, 8944, 9693, 10832, 12649]}, 'edge': {'target': [], 'time': []}}}","[67, 6, 6]","[101.40000000037253, 1231.4000000003725, 19292.900000000373]",1,[],67,"[None, None, None]","['', 67, -6, 6, -6, 34, -6, 3, 3, 67, 6, 6, -3]",275903,[],mouselab-mdp
0,19,"[16010, 16754, 17524]","['up', 'up', 'right']",training,"['0', '1', '2', '3']","{'click': {'state': {'target': ['1', '5', '9', '11', '12', '8', '7', '6', '3', '2', '4'], 'time': [2130, 2799, 3668, 5467, 6297, 7366, 8136, 8636, 9584, 10485, 11019]}, 'edge': {'target': [], 'time': []}}, 'mouseover': {'state': {'target': ['5', '0', '1', '5', '0', '9', '0', '11', '12', '8', '7', '6', '3', '3', '4', '2', '4'], 'time': [426, 1657, 1745, 2448, 3059, 3149, 4329, 5081, 5835, 6968, 7670, 8397, 8918, 9251, 9881, 10098, 10752]}, 'edge': {'target': [], 'time': []}}, 'mouseout': {'state': {'target': ['5', '0', '1', '5', '0', '9', '9', '0', '11', '12', '8', '7', '6', '3', '3', '4', '2', '4', '11'], 'time': [508, 1739, 2371, 3054, 3143, 4132, 4253, 4408, 5701, 6607, 7569, 8307, 8834, 8992, 9785, 10000, 10668, 11583, 18527]}, 'edge': {'target': [], 'time': []}}}","[34, 6, -6]","[144.09999999962747, 232.80000000074506, 16003]",1,[],23,"[None, None, None]","['', 34, 6, -6, 6, 34, 6, -6, 3, -34, 11, -6, -3]",292261,[],mouselab-mdp
0,20,"[14135, 14812, 15454]","['up', 'up', 'right']",training,"['0', '1', '2', '3']","{'click': {'state': {'target': ['1', '5', '9', '11', '10', '12', '7', '6', '8', '3', '2', '4'], 'time': [1322, 2051, 2798, 3895, 4461, 5000, 6366, 6951, 7797, 8925, 9562, 10147]}, 'edge': {'target': [], 'time': []}}, 'mouseover': {'state': {'target': ['1', '2', '1', '5', '9', '11', '10', '12', '7', '6', '8', '3', '2', '4'], 'time': [766, 858, 1023, 1652, 2536, 3575, 4117, 4681, 5856, 6574, 7148, 8371, 9216, 9831]}, 'edge': {'target': [], 'time': []}}, 'mouseout': {'state': {'target': ['1', '2', '1', '5', '9', '11', '10', '12', '9', '7', '6', '8', '3', '2', '4'], 'time': [851, 934, 1575, 2531, 3313, 4039, 4605, 5394, 5522, 6555, 7068, 8007, 9139, 9755, 10521]}, 'edge': {'target': [], 'time': []}}}","[67, 11, 3]","[208.90000000037253, 208.5, 14118.699999999255]",1,[],69,"[None, None, None]","['', 67, 11, 3, -3, -34, 6, 3, -3, 67, -6, -6, 6]",314789,[],mouselab-mdp
0,21,"[11023, 13372, 14333]","['left', 'left', 'up']",training,"['0', '9', '10', '11']","{'click': {'state': {'target': ['4', '3', '2', '1', '11', '10', '12', '9', '8', '6', '5', '7'], 'time': [993, 2354, 2894, 3480, 4330, 4898, 5378, 6016, 7037, 7719, 8333, 9402]}, 'edge': {'target': [], 'time': []}}, 'mouseover': {'state': {'target': ['4', '2', '3', '2', '1', '11', '10', '12', '9', '5', '8', '6', '5', '7'], 'time': [497, 1454, 2064, 2611, 3106, 3974, 4554, 5104, 5692, 6386, 6776, 7368, 8002, 8741]}, 'edge': {'target': [], 'time': []}}, 'mouseout': {'state': {'target': ['4', '2', '3', '2', '1', '11', '10', '12', '9', '5', '8', '6', '5', '7'], 'time': [1373, 1543, 2509, 3076, 3724, 4510, 5094, 5558, 6288, 6492, 7223, 7902, 8621, 9737]}, 'edge': {'target': [], 'time': []}}}","[34, 11, 3]","[108.40000000037253, 61.5, 11016.300000000745]",1,[],36,"[None, None, None]","['', -67, -11, -6, 3, 67, -6, -3, -6, 34, 11, 3, -6]",334158,[],mouselab-mdp
0,22,"[15828, 16494, 18499]","['left', 'left', 'down']",training,"['0', '9', '10', '12']","{'click': {'state': {'target': ['5', '1', '9', '10', '12', '11', '7', '6', '8', '3', '2', '4'], 'time': [1555, 2454, 3077, 4068, 5022, 5686, 6646, 7353, 7948, 9421, 10147, 10906]}, 'edge': {'target': [], 'time': []}}, 'mouseover': {'state': {'target': ['0', '5', '1', '9', '10', '12', '11', '7', '6', '8', '3', '2', '4'], 'time': [900, 1178, 1982, 2710, 3798, 4677, 5290, 6216, 7088, 7578, 8974, 9856, 10676]}, 'edge': {'target': [], 'time': []}}, 'mouseout': {'state': {'target': ['0', '5', '1', '9', '10', '12', '11', '7', '6', '8', '3', '2', '4', '1'], 'time': [1061, 1884, 2672, 3691, 4209, 5195, 5909, 6982, 7563, 8436, 9755, 10572, 11290, 19635]}, 'edge': {'target': [], 'time': []}}}","[34, -11, 6]","[1749.4000000003725, 392.3999999985099, 15819.900000000373]",1,[],17,"[None, None, None]","['', -34, -11, 6, -3, 34, -11, 3, 6, 34, -11, -6, 6]",351152,[],mouselab-mdp
0,23,"[15992, 16802, 17540]","['right', 'right', 'up']",training,"['0', '5', '6', '7']","{'click': {'state': {'target': ['1', '5', '9', '11', '10', '12', '8', '6', '7', '3', '2', '4'], 'time': [852, 1569, 2263, 3401, 4088, 4672, 5647, 6428, 7201, 8242, 9117, 9806]}, 'edge': {'target': [], 'time': []}}, 'mouseover': {'state': {'target': ['1', '5', '9', '11', '10', '12', '8', '6', '7', '3', '2', '4'], 'time': [344, 1261, 2009, 3055, 3785, 4338, 5253, 6016, 6849, 7720, 8687, 9531]}, 'edge': {'target': [], 'time': []}}, 'mouseout': {'state': {'target': ['1', '5', '9', '11', '10', '12', '8', '6', '7', '3', '2', '4'], 'time': [1157, 1890, 2806, 3634, 4318, 4906, 5903, 6754, 7604, 8584, 9440, 10329]}, 'edge': {'target': [], 'time': []}}}","[-34, 6, 6]","[86.90000000037253, 1459.699999999255, 15985.89999999851]",1,[],-34,"[None, None, None]","['', -34, -6, 6, -3, -34, 6, 6, -3, -34, 11, -3, -3]",367206,[],mouselab-mdp
0,24,"[27143, 27792, 28486]","['right', 'right', 'down']",training,"['0', '5', '6', '8']","{'click': {'state': {'target': ['4', '2', '3', '1', '11', '10', '9', '12', '8', '6', '7', '5'], 'time': [1714, 2527, 3134, 3779, 4846, 5424, 5962, 6908, 8290, 9250, 10060, 10843]}, 'edge': {'target': [], 'time': []}}, 'mouseover': {'state': {'target': ['4', '2', '3', '1', '11', '10', '9', '12', '5', '8', '6', '7', '5'], 'time': [1421, 2137, 2903, 3398, 4115, 5094, 5702, 6430, 7380, 7723, 8764, 9737, 10375]}, 'edge': {'target': [], 'time': []}}, 'mouseout': {'state': {'target': ['4', '2', '3', '1', '11', '10', '9', '12', '5', '8', '6', '7', '5'], 'time': [1999, 2782, 3353, 4005, 5074, 5612, 6331, 7286, 7630, 8497, 9529, 10279, 11663]}, 'edge': {'target': [], 'time': []}}}","[67, -11, -3]","[268.40000000037253, 193.40000000037253, 27135.400000000373]",1,[],41,"[None, None, None]","['', 34, 11, -3, 3, 67, -11, -6, -3, -67, -6, -3, 3]",387690,[],mouselab-mdp
0,25,"[13341, 14201, 14867]","['right', 'right', 'up']",training,"['0', '5', '6', '7']","{'click': {'state': {'target': ['11', '10', '12', '9', '5', '6', '8', '7', '1', '3', '4', '2'], 'time': [1996, 3235, 3954, 4734, 5478, 6048, 6602, 7349, 8018, 8872, 9855, 11592]}, 'edge': {'target': [], 'time': []}}, 'mouseover': {'state': {'target': ['1', '9', '11', '10', '12', '9', '5', '6', '8', '7', '1', '3', '3', '4', '2'], 'time': [696, 939, 1306, 2971, 3479, 4344, 5146, 5847, 6306, 6956, 7705, 8408, 8619, 9470, 11265]}, 'edge': {'target': [], 'time': []}}, 'mouseout': {'state': {'target': ['1', '9', '11', '10', '12', '9', '5', '6', '8', '7', '1', '3', '3', '4', '2', '4'], 'time': [810, 1038, 2357, 3458, 4223, 5020, 5727, 6201, 6853, 7602, 8302, 8520, 9225, 10262, 11967, 12083]}, 'edge': {'target': [], 'time': []}}}","[34, -11, 6]","[129.19999999925494, 75.29999999888241, 13331.800000000745]",1,[],17,"[None, None, None]","['', -34, 6, 3, -6, 34, -11, 6, 3, -34, 6, -3, -3]",407234,[],mouselab-mdp
0,26,"[12195, 12876, 13594]","['right', 'right', 'up']",training,"['0', '5', '6', '7']","{'click': {'state': {'target': ['4', '2', '3', '1', '11', '9', '5', '6', '7', '8', '10', '12'], 'time': [1376, 1984, 2571, 3390, 4241, 5514, 6491, 7212, 8003, 8798, 9864, 10904]}, 'edge': {'target': [], 'time': []}}, 'mouseover': {'state': {'target': ['4', '2', '3', '1', '11', '9', '5', '6', '7', '7', '8', '10', '12', '12'], 'time': [648, 1714, 2339, 3029, 3763, 5192, 6192, 6922, 7428, 7674, 8395, 9341, 10258, 10589]}, 'edge': {'target': [], 'time': []}}, 'mouseout': {'state': {'target': ['4', '2', '3', '1', '11', '9', '5', '6', '7', '7', '8', '9', '10', '12', '12'], 'time': [1611, 2231, 2800, 3646, 4526, 5860, 6759, 7424, 7538, 8258, 9023, 9243, 10022, 10367, 11087]}, 'edge': {'target': [], 'time': []}}}","[67, 11, 6]","[282.80000000074506, 80.69999999925494, 12188.299999998882]",1,[],72,"[None, None, None]","['', 34, -11, 6, -3, 67, 11, 6, -6, 34, 6, -6, -6]",439195,[],mouselab-mdp
0,27,"[13239, 14659, 15415]","['up', 'up', 'right']",training,"['0', '1', '2', '3']","{'click': {'state': {'target': ['1', '9', '5', '6', '7', '3', '2', '4', '10', '11', '12', '8'], 'time': [2156, 3108, 4004, 4625, 5274, 6331, 7004, 7498, 8617, 9644, 11065, 12140]}, 'edge': {'target': [], 'time': []}}, 'mouseover': {'state': {'target': ['10', '4', '1', '9', '5', '6', '7', '2', '3', '2', '4', '11', '10', '11', '12', '8', '8', '0'], 'time': [702, 1293, 1770, 2671, 3472, 4381, 4866, 5639, 5973, 6734, 7244, 7966, 8217, 9001, 10514, 11532, 11798, 12617]}, 'edge': {'target': [], 'time': []}}, 'mouseout': {'state': {'target': ['10', '4', '1', '9', '5', '6', '7', '2', '3', '2', '4', '11', '10', '11', '12', '8', '8', '0'], 'time': [1287, 1601, 2551, 3361, 4271, 4766, 5534, 5866, 6615, 7236, 7831, 8089, 8898, 10153, 11380, 11648, 12495, 12723]}, 'edge': {'target': [], 'time': []}}}","[34, -6, -3]","[79.90000000037253, 152.5, 13229.700000001118]",1,[],13,"[None, None, None]","['', 34, -6, -3, -6, -67, -6, 6, -6, -67, -11, -3, 6]",456039,[],mouselab-mdp
0,28,"[19505, 20231, 20864]","['up', 'up', 'right']",training,"['0', '1', '2', '3']","{'click': {'state': {'target': ['1', '9', '5', '3', '2', '4', '11', '10', '12', '8', '6', '7'], 'time': [1633, 2631, 3595, 5197, 5931, 6516, 7490, 8290, 9093, 10511, 11304, 12320]}, 'edge': {'target': [], 'time': []}}, 'mouseover': {'state': {'target': ['0', '1', '9', '5', '3', '3', '2', '4', '11', '10', '12', '8', '6', '7'], 'time': [1082, 1333, 2122, 3099, 4246, 4887, 5706, 6286, 6903, 7989, 8797, 10008, 11005, 12313]}, 'edge': {'target': [], 'time': []}}, 'mouseout': {'state': {'target': ['0', '1', '9', '5', '3', '3', '2', '4', '11', '10', '12', '8', '6', '7'], 'time': [1188, 2115, 2986, 4241, 4414, 5599, 6180, 6793, 7863, 8658, 9810, 10778, 12301, 13339]}, 'edge': {'target': [], 'time': []}}}","[34, -11, -6]","[859.4000000003725, 150.5, 19497.60000000149]",1,[],5,"[None, None, None]","['', 34, -11, -6, -6, -34, -11, 6, -6, -34, -11, 6, 3]",471358,[],mouselab-mdp
0,29,"[15068, 16165, 17582]","['right', 'right', 'up']",training,"['0', '5', '6', '7']","{'click': {'state': {'target': ['1', '9', '5', '7', '6', '8', '2', '3', '4', '10'], 'time': [1256, 2218, 3978, 4899, 5636, 6396, 7625, 8916, 10182, 12579]}, 'edge': {'target': [], 'time': []}}, 'mouseover': {'state': {'target': ['1', '9', '5', '5', '7', '6', '8', '2', '4', '3', '4', '11', '10', '11'], 'time': [1147, 1999, 2687, 3695, 4484, 5279, 6075, 7171, 8147, 8506, 9635, 10889, 12129, 13899]}, 'edge': {'target': [], 'time': []}}, 'mouseout': {'state': {'target': ['1', '9', '5', '5', '7', '6', '8', '2', '4', '2', '3', '4', '11', '10', '11'], 'time': [1995, 2563, 2825, 4345, 5163, 5952, 7022, 8027, 8388, 8500, 9193, 10760, 12018, 13174, 14770]}, 'edge': {'target': [], 'time': []}}}","[34, 11, 3]","[106.59999999962747, 87.5, 15061.400000000373]",1,[],38,"[None, None, None]","['', 34, -11, -3, 6, 34, 11, 3, -3, -67, 11, -6, -6]",491574,[],mouselab-mdp
0,30,"[9628, 11022, 11773]","['right', 'right', 'down']",training,"['0', '5', '6', '8']","{'click': {'state': {'target': ['1', '9', '5', '7', '6', '8'], 'time': [1913, 2696, 4061, 5020, 5914, 7151]}, 'edge': {'target': [], 'time': []}}, 'mouseover': {'state': {'target': ['2', '4', '1', '9', '5', '7', '6', '8'], 'time': [957, 1260, 1510, 2388, 3328, 4507, 5808, 6671]}, 'edge': {'target': [], 'time': []}}, 'mouseout': {'state': {'target': ['2', '4', '1', '9', '5', '7', '6', '8'], 'time': [1142, 1393, 2268, 3321, 4328, 5801, 6475, 7944]}, 'edge': {'target': [], 'time': []}}}","[67, -6, 6]","[93.90000000037253, 843, 9621.200000001118]",1,[],61,"[None, None, None]","['', 34, -11, 3, 6, 67, -6, 3, 6, -34, -6, 3, -6]",513920,[],mouselab-mdp
0,31,"[13848, 14548, 16779]","['up', 'up', 'left']",training,"['0', '1', '2', '4']","{'click': {'state': {'target': ['5', '1', '9', '2', '3', '4', '10', '6', '7', '8'], 'time': [1802, 2797, 3622, 5377, 6582, 7340, 8719, 9900, 10923, 11830]}, 'edge': {'target': [], 'time': []}}, 'mouseover': {'state': {'target': ['5', '1', '9', '11', '2', '6', '3', '4', '10', '6', '7', '8'], 'time': [1451, 2271, 3220, 4377, 5008, 5824, 6201, 6956, 8370, 9530, 10626, 11304]}, 'edge': {'target': [], 'time': []}}, 'mouseout': {'state': {'target': ['5', '1', '9', '11', '2', '6', '3', '4', '10', '5', '6', '7', '8', '4', '4'], 'time': [2152, 3096, 4255, 4496, 5680, 6090, 6823, 7954, 9118, 9372, 10508, 11163, 12567, 19621, 19894]}, 'edge': {'target': [], 'time': []}}}","[34, -6, 6]","[98.60000000149012, 111.59999999962747, 13839.299999998882]",1,[],24,"[None, None, None]","['', 34, -6, -3, 6, -67, 11, 6, 3, -34, -11, 3, -6]",534759,[],mouselab-mdp
0,32,"[10915, 11642, 12324]","['left', 'left', 'up']",training,"['0', '9', '10', '11']","{'click': {'state': {'target': ['4', '2', '3', '1', '9', '5', '10', '11', '12'], 'time': [2049, 2644, 3310, 3901, 5089, 5920, 6905, 8902, 9886]}, 'edge': {'target': [], 'time': []}}, 'mouseover': {'state': {'target': ['1', '4', '2', '3', '1', '9', '5', '10', '11', '12'], 'time': [1183, 1718, 2443, 3067, 3620, 4637, 5599, 6414, 8593, 9510]}, 'edge': {'target': [], 'time': []}}, 'mouseout': {'state': {'target': ['1', '4', '2', '3', '1', '9', '5', '10', '11', '10'], 'time': [1368, 2321, 2948, 3496, 4245, 5464, 6274, 7533, 9213, 9361]}, 'edge': {'target': [], 'time': []}}}","[67, -11, -3]","[120.89999999850988, 1696, 10896.300000000745]",1,[],44,"[None, None, None]","['', -34, -6, 6, -6, -67, 11, -6, 3, 67, -11, -3, -6]",548170,[],mouselab-mdp
0,33,"[7539, 8284, 9022]","['left', 'left', 'up']",training,"['0', '9', '10', '11']","{'click': {'state': {'target': ['1', '9', '5', '10', '11', '12'], 'time': [1693, 2918, 4214, 5313, 6106, 7086]}, 'edge': {'target': [], 'time': []}}, 'mouseover': {'state': {'target': ['12', '1', '9', '5', '5', '10', '11', '12'], 'time': [None, 1565, 2614, 3481, 3943, 5093, 5657, 6622]}, 'edge': {'target': [], 'time': []}}, 'mouseout': {'state': {'target': ['12', '1', '9', '5', '5', '9', '10', '11'], 'time': [172, 2479, 3355, 3765, 4552, 4969, 5653, 6417]}, 'edge': {'target': [], 'time': []}}}","[67, 6, 6]","[201.7000000011176, 155.2000000011176, 7531.300000000745]",1,[],73,"[None, None, None]","['', -34, 6, -3, 6, -67, 11, 6, -3, 67, 6, 6, -3]",569048,[],mouselab-mdp
0,34,"[8088, 9298, 10028]","['right', 'right', 'down']",training,"['0', '5', '6', '8']","{'click': {'state': {'target': ['9', '1', '5', '6', '7', '8'], 'time': [2511, 3411, 4211, 5155, 6385, 7622]}, 'edge': {'target': [], 'time': []}}, 'mouseover': {'state': {'target': ['12', '1', '9', '1', '5', '6', '7', '8'], 'time': [None, 1955, 2098, 3047, 3856, 4965, 6045, 7118]}, 'edge': {'target': [], 'time': []}}, 'mouseout': {'state': {'target': ['12', '1', '9', '1', '5', '6', '7', '8'], 'time': [1016, 2093, 2913, 3730, 4819, 5928, 6977, 10777]}, 'edge': {'target': [], 'time': []}}}","[67, -6, -3]","[146, 168.59999999962747, 8082.800000000745]",1,[],52,"[None, None, None]","['', -34, 6, -6, -3, 67, -6, -6, -3, -34, -11, 3, 6]",582956,[],mouselab-mdp
1,0,"[6949, 7791, 8860]","['right', 'right', 'up']",training,"['0', '5', '6', '7']","{'click': {'state': {'target': ['1'], 'time': [5227]}, 'edge': {'target': [], 'time': []}}, 'mouseover': {'state': {'target': ['2', '1', '5'], 'time': [4693, 4821, 6068]}, 'edge': {'target': [], 'time': []}}, 'mouseout': {'state': {'target': ['2', '1', '5'], 'time': [4718, 5977, 12212]}, 'edge': {'target': [], 'time': []}}}","[-2, -4, -48]","[273750, 26208.69999998808, 6944.100000023842]",0,0,-55,"[None, None, None]","['', -2, 4, -24, 24, -2, -4, -48, -48, 4, -8, 24, 24]",273768,[],mouselab-mdp
1,1,"[1673, 2721, 4329]","['up', 'up', 'right']",training,"['0', '1', '2', '3']","{'click': {'state': {'target': [], 'time': []}, 'edge': {'target': [], 'time': []}}, 'mouseover': {'state': {'target': [], 'time': []}, 'edge': {'target': [], 'time': []}}, 'mouseout': {'state': {'target': [], 'time': []}, 'edge': {'target': [], 'time': []}}}","[-2, 8, -24]","[327.0999999642372, 520.8000000119209, 1669.699999988079]",0,[],-18,"[None, None, None]","['', -2, 8, -24, 24, -4, 8, 48, 24, -2, -4, 24, -48]",299991,[],mouselab-mdp
1,2,"[1336, 2313, 2940]","['right', 'right', 'down']",training,"['0', '5', '6', '8']","{'click': {'state': {'target': [], 'time': []}, 'edge': {'target': [], 'time': []}}, 'mouseover': {'state': {'target': [], 'time': []}, 'edge': {'target': [], 'time': []}}, 'mouseout': {'state': {'target': [], 'time': []}, 'edge': {'target': [], 'time': []}}}","[-4, -8, -48]","[528.5, 1087.5, 1333]",0,[],-60,"[None, None, None]","['', 2, 4, -48, -24, -4, -8, 24, -48, -2, 8, 48, -24]",313713,[],mouselab-mdp
1,3,"[1151, 2121, 2973]","['left', 'left', 'up']",training,"['0', '9', '10', '11']","{'click': {'state': {'target': [], 'time': []}, 'edge': {'target': [], 'time': []}}, 'mouseover': {'state': {'target': [], 'time': []}, 'edge': {'target': [], 'time': []}}, 'mouseout': {'state': {'target': [], 'time': []}, 'edge': {'target': [], 'time': []}}}","[-2, 8, 48]","[450.4000000357628, 102.69999998807907, 1142.300000011921]",0,[],54,"[None, None, None]","['', 4, -4, -48, -48, 4, 8, 24, -24, -2, 8, 48, -48]",320564,[],mouselab-mdp
1,4,"[6176, 6758, 9782]","['right', 'right', 'up']",training,"['0', '5', '6', '7']","{'click': {'state': {'target': ['9', '1', '5'], 'time': [2837, 4153, 5065]}, 'edge': {'target': [], 'time': []}}, 'mouseover': {'state': {'target': ['0', '9', '9', '1', '5', '6'], 'time': [1612, 1670, 1959, 3742, 4721, 5483]}, 'edge': {'target': [], 'time': []}}, 'mouseout': {'state': {'target': ['0', '9', '9', '1', '5', '6'], 'time': [1644, 1726, 3499, 4279, 5457, 5508]}, 'edge': {'target': [], 'time': []}}}","[2, -4, 24]","[460.19999998807907, 312.60000002384186, 6172.100000023842]",0,[],19,"[None, None, None]","['', -4, -4, -24, 24, 2, -4, 24, -48, -2, 8, -48, -48]",325333,[],mouselab-mdp
1,5,"[7338, 8230, 14312]","['up', 'up', 'left']",training,"['0', '1', '2', '4']","{'click': {'state': {'target': ['1', '5', '9'], 'time': [1301, 2272, 4179]}, 'edge': {'target': [], 'time': []}}, 'mouseover': {'state': {'target': ['6', '1', '5', '9'], 'time': [569, 918, 1819, 2800]}, 'edge': {'target': [], 'time': []}}, 'mouseout': {'state': {'target': ['6', '1', '5', '9', '3', '0'], 'time': [596, 1768, 2666, 4748, 13407, 13526]}, 'edge': {'target': [], 'time': []}}}","[2, 8, 24]","[69.90000003576279, 2482.600000023842, 7334.800000011921]",0,[],31,"[None, None, None]","['', 2, 8, 48, 24, -2, 4, 24, 24, -2, -4, -48, -24]",331653,[],mouselab-mdp
1,6,"[19413, 20053, 20691]","['right', 'right', 'down']",training,"['0', '5', '6', '8']","{'click': {'state': {'target': ['9', '1', '5', '2', '3', '4', '10', '12', '11', '7', '8'], 'time': [4767, 6056, 7104, 9834, 11055, 11959, 14693, 15500, 16404, 17414, 18236]}, 'edge': {'target': [], 'time': []}}, 'mouseover': {'state': {'target': ['9', '1', '5', '2', '3', '4', '0', '10', '12', '11', '7', '8'], 'time': [4406, 5371, 6522, 9518, 10634, 11599, 12699, 14413, 15274, 16006, 17127, 17860]}, 'edge': {'target': [], 'time': []}}, 'mouseout': {'state': {'target': ['9', '1', '5', '2', '3', '2', '4', '0', '9', '10', '12', '10', '11', '1', '7'], 'time': [5339, 6487, 9285, 10604, 11466, 11516, 12587, 12725, 14166, 15213, 15950, 15978, 16798, 16845, 17761]}, 'edge': {'target': [], 'time': []}}}","[-4, -8, 48]","[367.19999998807907, 5552.899999976158, 19409.100000023842]",0,[],25,"[None, None, None]","['', 4, 8, -24, -24, -4, -8, -48, 48, 2, -8, -24, -48]",344258,[],mouselab-mdp
1,7,"[6285, 6896, 7469]","['up', 'up', 'right']",training,"['0', '1', '2', '3']","{'click': {'state': {'target': ['8', '3'], 'time': [1114, 3821]}, 'edge': {'target': [], 'time': []}}, 'mouseover': {'state': {'target': ['8', '5', '1', '2', '3', '1'], 'time': [None, 2815, 2914, 2981, 3214, 5362]}, 'edge': {'target': [], 'time': []}}, 'mouseout': {'state': {'target': ['8', '5', '1', '2', '3', '1', '0'], 'time': [2348, 2881, 2948, 3148, 5329, 5392, 8768]}, 'edge': {'target': [], 'time': []}}}","[2, -4, 48]","[131.19999998807907, 119.70000004768372, 6281.399999976158]",0,[],44,"[None, None, None]","['', 2, -4, 48, 24, -2, -4, 24, 24, 2, -8, -24, 24]",360517,[],mouselab-mdp
1,8,"[4783, 5485, 6636]","['left', 'left', 'up']",training,"['0', '9', '10', '11']","{'click': {'state': {'target': ['3', '11'], 'time': [1066, 2563]}, 'edge': {'target': [], 'time': []}}, 'mouseover': {'state': {'target': ['3', '2', '4', '11', '11'], 'time': [659, 1639, 1732, 1891, 2291]}, 'edge': {'target': [], 'time': []}}, 'mouseout': {'state': {'target': ['3', '2', '4', '11', '11'], 'time': [1609, 1686, 1782, 1991, 3956]}, 'edge': {'target': [], 'time': []}}}","[4, -8, 48]","[87.30000001192093, 61.09999996423721, 4780.099999964237]",0,[],42,"[None, None, None]","['', 4, -4, -24, 24, 2, 4, -24, -48, 4, -8, 48, -48]",383729,[],mouselab-mdp
1,9,"[4379, 4984, 5659]","['left', 'left', 'down']",training,"['0', '9', '10', '12']","{'click': {'state': {'target': ['4', '12'], 'time': [1870, 3181]}, 'edge': {'target': [], 'time': []}}, 'mouseover': {'state': {'target': ['5', '7', '4', '4', '11', '12'], 'time': [543, 826, 1310, 1625, 2508, 2824]}, 'edge': {'target': [], 'time': []}}, 'mouseout': {'state': {'target': ['5', '7', '4', '4', '11'], 'time': [578, 860, 1425, 2425, 2724]}, 'edge': {'target': [], 'time': []}}}","[4, 8, 48]","[182, 634.1999999880791, 4375.399999976158]",0,[],58,"[None, None, None]","['', -2, -4, 48, -48, 2, 4, -48, 24, 4, 8, -48, 48]",392920,[],mouselab-mdp
1,10,"[4003, 4706, 5473]","['right', 'right', 'down']",training,"['0', '5', '6', '8']","{'click': {'state': {'target': ['7', '8'], 'time': [1647, 2993]}, 'edge': {'target': [], 'time': []}}, 'mouseover': {'state': {'target': ['12', '0', '7', '8', '8'], 'time': [None, 673, 1123, 2271, 2638]}, 'edge': {'target': [], 'time': []}}, 'mouseout': {'state': {'target': ['12', '0', '7', '8'], 'time': [624, 710, 2228, 2329]}, 'edge': {'target': [], 'time': []}}}","[-2, -8, 48]","[71, 157.10000002384186, 4000.099999964237]",0,[],36,"[None, None, None]","['', -4, -4, -48, -48, -2, -8, 24, 48, 2, 4, -24, -48]",400996,[],mouselab-mdp
1,11,"[6417, 7025, 7632]","['left', 'left', 'up']",training,"['0', '9', '10', '11']","{'click': {'state': {'target': ['8', '3', '4', '12'], 'time': [897, 2691, 3963, 5133]}, 'edge': {'target': [], 'time': []}}, 'mouseover': {'state': {'target': ['8', '6', '1', '2', '3', '2', '4', '11', '10', '12'], 'time': [None, 1577, 1786, 2268, 2350, 3374, 3700, 4491, 4537, 4733]}, 'edge': {'target': [], 'time': []}}, 'mouseout': {'state': {'target': ['8', '6', '1', '2', '3', '2', '4', '11', '10'], 'time': [1536, 1623, 1846, 2308, 3335, 3416, 4451, 4532, 4600]}, 'edge': {'target': [], 'time': []}}}","[4, 4, 24]","[167.80000001192093, 256.60000002384186, 6414]",0,[],28,"[None, None, None]","['', 2, 4, 24, -24, 4, 8, 24, -24, 4, 4, 24, 48]",408249,[],mouselab-mdp
1,12,"[9126, 9783, 11658]","['left', 'left', 'up']",training,"['0', '9', '10', '11']","{'click': {'state': {'target': ['7', '4', '12', '11'], 'time': [1864, 3027, 4487, 7503]}, 'edge': {'target': [], 'time': []}}, 'mouseover': {'state': {'target': ['12', '5', '6', '7', '3', '2', '4', '9', '12', '10', '11', '11', '0', '8', '3', '11', '0'], 'time': [None, 1193, 1241, 1547, 2543, 2662, 2777, 3894, 4044, 5032, 5086, 5427, 5476, 5577, 6992, 7159, 8101]}, 'edge': {'target': [], 'time': []}}, 'mouseout': {'state': {'target': ['12', '5', '6', '7', '3', '2', '4', '9', '12', '10', '11', '11', '0', '8', '3', '11', '0'], 'time': [1149, 1239, 1464, 2496, 2590, 2729, 3694, 3944, 5027, 5079, 5129, 5471, 5522, 6459, 7061, 8057, 8144]}, 'edge': {'target': [], 'time': []}}}","[-4, -4, 48]","[92.30000001192093, 86.20000004768372, 9122.699999988079]",0,[],36,"[None, None, None]","['', -4, 8, 48, 24, 2, -8, -48, -24, -4, -4, 48, -24]",415096,[],mouselab-mdp
1,13,"[4586, 5183, 6016]","['right', 'right', 'down']",training,"['0', '5', '6', '8']","{'click': {'state': {'target': ['7', '8'], 'time': [2484, 3654]}, 'edge': {'target': [], 'time': []}}, 'mouseover': {'state': {'target': ['7', '7', '6', '8'], 'time': [1739, 2072, 3136, 3438]}, 'edge': {'target': [], 'time': []}}, 'mouseout': {'state': {'target': ['7', '7', '6'], 'time': [1788, 3088, 3305]}, 'edge': {'target': [], 'time': []}}}","[2, 4, 48]","[126.69999998807907, 1320.5999999642372, 4583]",0,[],52,"[None, None, None]","['', -2, -4, 48, 24, 2, 4, -48, 48, -4, 4, 48, 24]",426746,[],mouselab-mdp
1,14,"[7799, 9320, 10980]","['left', 'left', 'up']",training,"['0', '9', '10', '11']","{'click': {'state': {'target': ['4', '12', '8', '7', '11'], 'time': [1955, 3282, 4349, 5401, 6481]}, 'edge': {'target': [], 'time': []}}, 'mouseover': {'state': {'target': ['8', '5', '2', '4', '11', '10', '12', '8', '8', '7', '11'], 'time': [None, 1141, 1351, 1485, 2661, 2830, 3044, 3828, 4110, 5176, 6225]}, 'edge': {'target': [], 'time': []}}, 'mouseout': {'state': {'target': ['8', '5', '2', '4', '11', '10', '12', '8', '8', '7', '11'], 'time': [1086, 1195, 1434, 2495, 2778, 2894, 3777, 3885, 4811, 5950, 6883]}, 'edge': {'target': [], 'time': []}}}","[4, 4, 48]","[60.10000002384186, 261.19999998807907, 7801.800000011921]",0,[],51,"[None, None, None]","['', -4, 8, 48, -24, -2, -4, 24, -48, 4, 4, 48, -48]",441139,[],mouselab-mdp
1,15,"[5967, 7132, 8128]","['right', 'right', 'up']",training,"['0', '5', '6', '7']","{'click': {'state': {'target': ['11', '4', '3', '7'], 'time': [1630, 2512, 3432, 4319]}, 'edge': {'target': [], 'time': []}}, 'mouseover': {'state': {'target': ['11', '4', '3', '7'], 'time': [1202, 2138, 3151, 4051]}, 'edge': {'target': [], 'time': []}}, 'mouseout': {'state': {'target': ['11', '4', '3', '7'], 'time': [2085, 2878, 3817, 4916]}, 'edge': {'target': [], 'time': []}}}","[4, 8, 48]","[987.6999999880791, 1126.3999999761581, 5963]",0,[],56,"[None, None, None]","['', -2, -8, -24, -24, 4, 8, 48, 24, -2, 8, -24, -48]",448920,[],mouselab-mdp
1,16,"[7086, 7757, 8393]","['up', 'up', 'left']",training,"['0', '1', '2', '4']","{'click': {'state': {'target': ['8', '7', '3', '4'], 'time': [2426, 3357, 4564, 5567]}, 'edge': {'target': [], 'time': []}}, 'mouseover': {'state': {'target': ['7', '8', '7', '3', '4'], 'time': [1166, 1940, 3036, 4319, 5301]}, 'edge': {'target': [], 'time': []}}, 'mouseout': {'state': {'target': ['7', '8', '7', '3', '4'], 'time': [1888, 2970, 3820, 5005, 6001]}, 'edge': {'target': [], 'time': []}}}","[4, 4, 48]","[623.3000000119209, 471.0999999642372, 7082.699999988079]",0,[],52,"[None, None, None]","['', 4, 4, -48, 48, 4, 4, -24, -24, 2, -8, 48, -24]",461429,[],mouselab-mdp
1,17,"[7525, 8137, 8752]","['up', 'up', 'left']",training,"['0', '1', '2', '4']","{'click': {'state': {'target': ['11', '7', '3', '4'], 'time': [1605, 3859, 4998, 5998]}, 'edge': {'target': [], 'time': []}}, 'mouseover': {'state': {'target': ['11', '10', '12', '5', '7', '3', '4'], 'time': [1303, 2246, 2787, 3068, 3412, 4667, 5600]}, 'edge': {'target': [], 'time': []}}, 'mouseout': {'state': {'target': ['11', '10', '12', '5', '7', '3', '4'], 'time': [2186, 2307, 2968, 3136, 4384, 5450, 6418]}, 'edge': {'target': [], 'time': []}}}","[2, 4, 48]","[135.19999998807907, 82.69999998807907, 7521.800000011921]",0,[],50,"[None, None, None]","['', 2, 4, -24, 48, -4, 8, -48, 48, 2, -4, 24, -24]",471248,[],mouselab-mdp
1,18,"[2816, 3432, 4144]","['right', 'right', 'down']",training,"['0', '5', '6', '8']","{'click': {'state': {'target': ['8'], 'time': [1497]}, 'edge': {'target': [], 'time': []}}, 'mouseover': {'state': {'target': ['9', '8', '8'], 'time': [646, 978, 1194]}, 'edge': {'target': [], 'time': []}}, 'mouseout': {'state': {'target': ['9', '8', '8'], 'time': [713, 1043, 2163]}, 'edge': {'target': [], 'time': []}}}","[-2, 4, 48]","[77, 73.10000002384186, 2812.599999964237]",0,[],49,"[None, None, None]","['', 4, 8, -24, 24, -2, 4, -24, 48, 2, -8, 24, 48]",480970,[],mouselab-mdp
1,19,"[4675, 5330, 6038]","['left', 'left', 'down']",training,"['0', '9', '10', '12']","{'click': {'state': {'target': ['11', '12'], 'time': [2530, 3582]}, 'edge': {'target': [], 'time': []}}, 'mouseover': {'state': {'target': ['6', '5', '0', '11', '11', '12'], 'time': [820, 1047, 1090, 1652, 2052, 3233]}, 'edge': {'target': [], 'time': []}}, 'mouseout': {'state': {'target': ['6', '5', '0', '11', '11', '12'], 'time': [996, 1088, 1130, 1711, 3084, 4038]}, 'edge': {'target': [], 'time': []}}}","[-4, -8, 48]","[55.5, 185.9000000357628, 4671.300000011921]",0,[],34,"[None, None, None]","['', -4, 4, 24, -24, -2, 4, 48, -24, -4, -8, -48, 48]",491291,[],mouselab-mdp
1,20,"[2653, 3219, 4824]","['right', 'right', 'up']",training,"['0', '5', '6', '7']","{'click': {'state': {'target': ['7'], 'time': [1458]}, 'edge': {'target': [], 'time': []}}, 'mouseover': {'state': {'target': ['5', '7'], 'time': [984, 1052]}, 'edge': {'target': [], 'time': []}}, 'mouseout': {'state': {'target': ['5', '7'], 'time': [1050, 2035]}, 'edge': {'target': [], 'time': []}}}","[-2, -8, 48]","[120.60000002384186, 184.80000001192093, 2649]",0,[],37,"[None, None, None]","['', 4, 4, 48, -48, -2, -8, 48, -24, -4, -8, 24, -48]",498312,[],mouselab-mdp
1,21,"[8142, 8733, 9635]","['up', 'up', 'right']",training,"['0', '1', '2', '3']","{'click': {'state': {'target': ['7', '11', '12', '8', '3', '4'], 'time': [1663, 2596, 3326, 4750, 5949, 7010]}, 'edge': {'target': [], 'time': []}}, 'mouseover': {'state': {'target': ['6', '2', '3', '7', '11', '12', '8', '8', '3', '2', '4'], 'time': [495, 578, 951, 1218, 2219, 3012, 4067, 4516, 5681, 6420, 6781]}, 'edge': {'target': [], 'time': []}}, 'mouseout': {'state': {'target': ['6', '2', '3', '7', '11', '12', '8', '8', '3', '2'], 'time': [572, 904, 1152, 2135, 2939, 3717, 4138, 5301, 6348, 6597]}, 'edge': {'target': [], 'time': []}}}","[2, -4, 24]","[36.200000047683716, 1073.300000011921, 8138.599999964237]",0,[],16,"[None, None, None]","['', 2, -4, 24, 24, -4, 4, -24, -24, -2, 4, -24, -48]",506382,[],mouselab-mdp
1,22,"[3052, 3708, 4726]","['left', 'left', 'up']",training,"['0', '9', '10', '11']","{'click': {'state': {'target': ['11'], 'time': [1920]}, 'edge': {'target': [], 'time': []}}, 'mouseover': {'state': {'target': ['4', '11', '4', '11', '9'], 'time': [None, 1292, 1427, 1710, 2515]}, 'edge': {'target': [], 'time': []}}, 'mouseout': {'state': {'target': ['4', '11', '4', '11', '9'], 'time': [687, 1344, 1593, 2431, 2596]}, 'edge': {'target': [], 'time': []}}}","[4, -8, 48]","[44.40000003576279, 346.5, 3047.5]",0,[],43,"[None, None, None]","['', 2, 8, 24, -24, 2, -8, -24, -24, 4, -8, 48, 48]",512518,[],mouselab-mdp
1,23,"[3032, 3640, 4443]","['left', 'left', 'down']",training,"['0', '9', '10', '12']","{'click': {'state': {'target': ['12'], 'time': [1879]}, 'edge': {'target': [], 'time': []}}, 'mouseover': {'state': {'target': ['9', '12'], 'time': [850, 1038]}, 'edge': {'target': [], 'time': []}}, 'mouseout': {'state': {'target': ['9', '12'], 'time': [900, 2391]}, 'edge': {'target': [], 'time': []}}}","[4, 8, 48]","[107.80000001192093, 486.0999999642372, 3027.800000011921]",0,[],59,"[None, None, None]","['', 2, -8, -24, 48, -2, -4, -24, -24, 4, 8, 24, 48]",523662,[],mouselab-mdp
1,24,"[9387, 10015, 10607]","['up', 'up', 'left']",training,"['0', '1', '2', '4']","{'click': {'state': {'target': ['7', '8', '3', '4', '11', '12'], 'time': [2288, 3599, 4785, 5697, 6687, 7880]}, 'edge': {'target': [], 'time': []}}, 'mouseover': {'state': {'target': ['6', '7', '8', '3', '4', '11', '12'], 'time': [953, 1867, 3449, 4498, 5414, 6191, 7645]}, 'edge': {'target': [], 'time': []}}, 'mouseout': {'state': {'target': ['6', '7', '8', '3', '4', '11'], 'time': [1033, 3143, 4163, 5198, 6114, 7079]}, 'edge': {'target': [], 'time': []}}}","[2, 4, 24]","[78.19999998807907, 236.69999998807907, 9382]",0,[],24,"[None, None, None]","['', 2, 4, -24, 24, 4, 8, -48, -48, -4, -4, -48, -24]",529749,[],mouselab-mdp
1,25,"[7334, 7972, 9034]","['right', 'right', 'down']",training,"['0', '5', '6', '8']","{'click': {'state': {'target': ['11', '12', '7', '3', '4', '8'], 'time': [1294, 2548, 3797, 4780, 5622, 6745]}, 'edge': {'target': [], 'time': []}}, 'mouseover': {'state': {'target': ['12', '10', '11', '12', '5', '7', '3', '4', '8'], 'time': [None, 658, 967, 2288, 3224, 3409, 4437, 5269, 6468]}, 'edge': {'target': [], 'time': []}}, 'mouseout': {'state': {'target': ['12', '10', '11', '12', '5', '7', '3', '4'], 'time': [593, 823, 1985, 3123, 3338, 4354, 5185, 6060]}, 'edge': {'target': [], 'time': []}}}","[-2, 8, 48]","[67.39999997615814, 64.80000001192093, 7331]",0,[],48,"[None, None, None]","['', -4, -8, 24, -24, -2, 8, 24, 48, 4, -4, 24, -48]",535335,[],mouselab-mdp
1,26,"[8390, 8999, 9625]","['up', 'up', 'right']",training,"['0', '1', '2', '3']","{'click': {'state': {'target': ['8', '7', '11', '12', '3'], 'time': [1726, 2793, 3966, 5800, 6989]}, 'edge': {'target': [], 'time': []}}, 'mouseover': {'state': {'target': ['8', '7', '11', '11', '12', '3', '2'], 'time': [None, 2423, 3388, 3719, 5452, 6700, 7535]}, 'edge': {'target': [], 'time': []}}, 'mouseout': {'state': {'target': ['8', '7', '11', '11', '12', '3', '2'], 'time': [2337, 3271, 3487, 4336, 6317, 7449, 7620]}, 'edge': {'target': [], 'time': []}}}","[-4, 4, 48]","[111.39999997615814, 526.6999999880791, 8386.5]",0,[],43,"[None, None, None]","['', -4, 4, 48, -48, -4, 4, -24, 24, -4, -8, 24, 24]",547399,[],mouselab-mdp
1,27,"[3913, 4537, 5450]","['left', 'left', 'up']",training,"['0', '9', '10', '11']","{'click': {'state': {'target': ['11'], 'time': [2402]}, 'edge': {'target': [], 'time': []}}, 'mouseover': {'state': {'target': ['4', '11'], 'time': [1385, 2122]}, 'edge': {'target': [], 'time': []}}, 'mouseout': {'state': {'target': ['4', '11'], 'time': [1479, 3028]}, 'edge': {'target': [], 'time': []}}}","[4, 4, 48]","[50.09999996423721, 48, 3903.899999976158]",0,[],55,"[None, None, None]","['', -4, -8, -48, -48, -4, -4, 48, 24, 4, 4, 48, -48]",557975,[],mouselab-mdp
1,28,"[9391, 10208, 11313]","['left', 'left', 'up']",training,"['0', '9', '10', '11']","{'click': {'state': {'target': ['12', '7', '3', '4', '11', '8'], 'time': [2479, 3776, 4688, 5608, 6373, 7551]}, 'edge': {'target': [], 'time': []}}, 'mouseover': {'state': {'target': ['12', '10', '12', '7', '3', '2', '4', '11', '0', '8'], 'time': [1617, 1804, 2298, 3481, 4359, 5215, 5345, 6128, 6928, 7245]}, 'edge': {'target': [], 'time': []}}, 'mouseout': {'state': {'target': ['12', '10', '12', '7', '3', '2', '4', '11', '0'], 'time': [1711, 2132, 2969, 4294, 5115, 5290, 5995, 6799, 7021]}, 'edge': {'target': [], 'time': []}}}","[4, -4, 24]","[104.10000002384186, 381, 9386.699999988079]",0,[],18,"[None, None, None]","['', 2, 8, -48, -24, 2, 8, -24, -48, 4, -4, 24, -48]",568961,[],mouselab-mdp
1,29,"[13625, 14282, 14905]","['right', 'right', 'down']",training,"['0', '5', '6', '8']","{'click': {'state': {'target': ['7', '8', '12', '11', '4', '3', '5'], 'time': [5197, 6142, 7139, 8066, 8879, 9589, 12171]}, 'edge': {'target': [], 'time': []}}, 'mouseover': {'state': {'target': ['8', '7', '8', '12', '11', '4', '2', '3', '6', '5', '6'], 'time': [None, 4829, 5792, 6866, 7599, 8572, 9209, 9313, 11643, 11877, 13142]}, 'edge': {'target': [], 'time': []}}, 'mouseout': {'state': {'target': ['8', '7', '8', '12', '11', '4', '2', '3', '6', '5'], 'time': [4751, 5615, 6531, 7496, 8477, 9196, 9305, 10079, 11810, 12758]}, 'edge': {'target': [], 'time': []}}}","[4, 8, 24]","[253.9000000357628, 588.5, 13622.300000011921]",0,[],29,"[None, None, None]","['', 2, 4, 24, -24, 4, 8, -48, 24, 4, -8, -24, 24]",575486,[],mouselab-mdp
1,30,"[8767, 9420, 11086]","['left', 'left', 'up']",training,"['0', '9', '10', '11']","{'click': {'state': {'target': ['3', '4', '12', '11', '7', '8'], 'time': [1143, 2187, 3331, 4123, 5309, 6165]}, 'edge': {'target': [], 'time': []}}, 'mouseover': {'state': {'target': ['6', '2', '3', '4', '12', '11', '7', '6', '7', '8', '6', '5', '9'], 'time': [None, 653, 919, 1734, 3005, 3866, 4621, 4897, 5033, 5750, 6864, 7089, 7620]}, 'edge': {'target': [], 'time': []}}, 'mouseout': {'state': {'target': ['6', '2', '3', '4', '12', '11', '7', '6', '7', '8', '6', '5', '9', '11'], 'time': [559, 823, 1666, 2655, 3771, 4510, 4797, 4965, 5681, 6767, 7084, 7187, 7727, 8001]}, 'edge': {'target': [], 'time': []}}}","[-2, 8, 24]","[122.39999997615814, 57.30000001192093, 8763.799999952316]",0,[],24,"[None, None, None]","['', 2, 4, -24, -48, -2, -4, -24, -24, -2, 8, 24, -24]",588246,[],mouselab-mdp
1,31,"[7551, 9959, 10998]","['up', 'up', 'left']",training,"['0', '1', '2', '4']","{'click': {'state': {'target': ['7', '4'], 'time': [4885, 6141]}, 'edge': {'target': [], 'time': []}}, 'mouseover': {'state': {'target': ['7', '2', '4'], 'time': [2572, 5549, 5851]}, 'edge': {'target': [], 'time': []}}, 'mouseout': {'state': {'target': ['7', '2'], 'time': [5449, 5651]}, 'edge': {'target': [], 'time': []}}}","[4, 8, 48]","[110.79999995231628, 1102.800000011921, 7547.800000011921]",0,[],58,"[None, None, None]","['', 4, 8, -24, 48, 2, 8, -48, -48, 2, -4, 24, -48]",604587,[],mouselab-mdp
1,32,"[7365, 8054, 8954]","['up', 'up', 'left']",training,"['0', '1', '2', '4']","{'click': {'state': {'target': ['8', '11', '3', '4'], 'time': [1610, 2823, 4711, 5995]}, 'edge': {'target': [], 'time': []}}, 'mouseover': {'state': {'target': ['4', '7', '8', '11', '12', '3', '4', '9'], 'time': [None, 800, 1177, 2542, 3724, 4307, 5473, 6588]}, 'edge': {'target': [], 'time': []}}, 'mouseout': {'state': {'target': ['4', '7', '8', '11', '12', '3', '4', '9'], 'time': [460, 1066, 2126, 3357, 3907, 5360, 6402, 6705]}, 'edge': {'target': [], 'time': []}}}","[4, 4, 48]","[1871, 466, 7366.599999964237]",0,[],52,"[None, None, None]","['', 4, 4, -48, 48, -2, 4, -48, -24, -2, -4, -48, 24]",617553,[],mouselab-mdp
1,33,"[4133, 4912, 7092]","['right', 'right', 'down']",training,"['0', '5', '6', '8']","{'click': {'state': {'target': ['12', '8'], 'time': [1723, 2732]}, 'edge': {'target': [], 'time': []}}, 'mouseover': {'state': {'target': ['1', '2', '3', '12', '8'], 'time': [526, 636, 736, 1400, 2274]}, 'edge': {'target': [], 'time': []}}, 'mouseout': {'state': {'target': ['1', '2', '3', '12'], 'time': [630, 734, 800, 2160]}, 'edge': {'target': [], 'time': []}}}","[2, 4, 48]","[114, 342.0999999642372, 4130.199999988079]",0,[],52,"[None, None, None]","['', 4, -8, 24, 24, 2, 4, 24, 48, -2, 4, 24, -48]",630355,[],mouselab-mdp
1,34,"[4025, 4791, 5942]","['left', 'left', 'up']",training,"['0', '9', '10', '11']","{'click': {'state': {'target': ['11'], 'time': [2814]}, 'edge': {'target': [], 'time': []}}, 'mouseover': {'state': {'target': ['8', '11'], 'time': [None, 2325]}, 'edge': {'target': [], 'time': []}}, 'mouseout': {'state': {'target': ['8'], 'time': [2214]}, 'edge': {'target': [], 'time': []}}}","[4, -8, 48]","[234.69999998807907, 1652.8999999761581, 4020.400000035763]",0,[],43,"[None, None, None]","['', -4, 4, -24, -24, -4, -8, 24, -24, 4, -8, 48, -48]",640969,[],mouselab-mdp
2,0,"[3839, 6180, 7461]","['left', 'left', 'down']",training,"['0', '9', '10', '12']","{'click': {'state': {'target': [], 'time': []}, 'edge': {'target': [], 'time': []}}, 'mouseover': {'state': {'target': ['9', '1', '1', '0'], 'time': [702, 1341, 1521, 2096]}, 'edge': {'target': [], 'time': []}}, 'mouseout': {'state': {'target': ['9', '1', '1'], 'time': [725, 1424, 2007]}, 'edge': {'target': [], 'time': []}}}","[-30, 15, -15]","[77439, 26122, 3835]",2,0,-30,"[None, None, None]","['', 15, -15, -15, 30, 15, 30, 15, -15, -30, 15, -30, -15]",77445,[],mouselab-mdp
2,1,"[1745, 4125, 5750]","['right', 'right', 'up']",training,"['0', '5', '6', '7']","{'click': {'state': {'target': [], 'time': []}, 'edge': {'target': [], 'time': []}}, 'mouseover': {'state': {'target': [], 'time': []}, 'edge': {'target': [], 'time': []}}, 'mouseout': {'state': {'target': [], 'time': []}, 'edge': {'target': [], 'time': []}}}","[30, 15, -30]","[1790.0000000000146, 727, 1739]",2,0.52,15,"[None, None, None]","['', -30, 15, 30, 15, 30, 15, -30, 30, 30, 15, -30, 30]",103570,[],mouselab-mdp
2,2,"[1618, 3236, 5271]","['up', 'up', 'right']",training,"['0', '1', '2', '3']","{'click': {'state': {'target': [], 'time': []}, 'edge': {'target': [], 'time': []}}, 'mouseover': {'state': {'target': [], 'time': []}, 'edge': {'target': [], 'time': []}}, 'mouseout': {'state': {'target': [], 'time': []}, 'edge': {'target': [], 'time': []}}}","[30, 30, 15]","[1835, 1078, 1614.999999999971]",2,[],75,"[None, None, None]","['', 30, 30, 15, 15, 15, -15, 30, -15, 30, 15, -30, 15]",114601,[],mouselab-mdp
2,3,"[2431, 3743, 5769]","['left', 'left', 'up']",training,"['0', '9', '10', '11']","{'click': {'state': {'target': [], 'time': []}, 'edge': {'target': [], 'time': []}}, 'mouseover': {'state': {'target': [], 'time': []}, 'edge': {'target': [], 'time': []}}, 'mouseout': {'state': {'target': [], 'time': []}, 'edge': {'target': [], 'time': []}}}","[15, -30, 30]","[1074.0000000000146, 1492.000000000029, 2429]",2,[],15,"[None, None, None]","['', -30, 15, -30, -30, -15, 15, -30, -30, 15, -30, 30, 30]",123845,[],mouselab-mdp
2,4,"[1565, 2904, 4244]","['right', 'right', 'down']",training,"['0', '5', '6', '8']","{'click': {'state': {'target': [], 'time': []}, 'edge': {'target': [], 'time': []}}, 'mouseover': {'state': {'target': [], 'time': []}, 'edge': {'target': [], 'time': []}}, 'mouseout': {'state': {'target': [], 'time': []}, 'edge': {'target': [], 'time': []}}}","[30, -15, 15]","[766, 1475, 1561]",2,[],30,"[None, None, None]","['', 15, -15, -30, 15, 30, -15, 15, 15, 15, -15, 15, 30]",132013,[],mouselab-mdp
2,5,"[2736, 3986, 5455]","['right', 'right', 'down']",training,"['0', '5', '6', '8']","{'click': {'state': {'target': [], 'time': []}, 'edge': {'target': [], 'time': []}}, 'mouseover': {'state': {'target': [], 'time': []}, 'edge': {'target': [], 'time': []}}, 'mouseout': {'state': {'target': [], 'time': []}, 'edge': {'target': [], 'time': []}}}","[-30, -30, -15]","[799, 790, 2729]",2,[],-75,"[None, None, None]","['', 30, 15, 15, -15, -30, -30, 15, -15, 30, -15, 30, 30]",140026,[],mouselab-mdp
2,6,"[1219, 2255, 3261]","['up', 'up', 'right']",training,"['0', '1', '2', '3']","{'click': {'state': {'target': [], 'time': []}, 'edge': {'target': [], 'time': []}}, 'mouseover': {'state': {'target': [], 'time': []}, 'edge': {'target': [], 'time': []}}, 'mouseout': {'state': {'target': [], 'time': []}, 'edge': {'target': [], 'time': []}}}","[-30, 30, 30]","[705, 923, 1213.000000000029]",2,[],30,"[None, None, None]","['', -30, 30, 30, -30, 15, 30, -15, 30, 30, -30, 15, -15]",146379,[],mouselab-mdp
2,7,"[1399, 2319, 3708]","['up', 'up', 'left']",training,"['0', '1', '2', '4']","{'click': {'state': {'target': [], 'time': []}, 'edge': {'target': [], 'time': []}}, 'mouseover': {'state': {'target': [], 'time': []}, 'edge': {'target': [], 'time': []}}, 'mouseout': {'state': {'target': [], 'time': []}, 'edge': {'target': [], 'time': []}}}","[30, 30, 30]","[500, 470, 1396]",2,[],90,"[None, None, None]","['', 30, 30, 30, 30, 15, 15, -30, -15, -30, 15, -30, -30]",154159,[],mouselab-mdp
2,8,"[1747, 2637, 3603]","['left', 'left', 'down']",training,"['0', '9', '10', '12']","{'click': {'state': {'target': [], 'time': []}, 'edge': {'target': [], 'time': []}}, 'mouseover': {'state': {'target': [], 'time': []}, 'edge': {'target': [], 'time': []}}, 'mouseout': {'state': {'target': [], 'time': []}, 'edge': {'target': [], 'time': []}}}","[-30, 15, 30]","[381, 845, 1744]",2,[],15,"[None, None, None]","['', -15, 15, 15, -15, 30, 15, 30, -30, -30, 15, -15, 30]",159451,[],mouselab-mdp
2,9,"[3387, 4307, 5676]","['right', 'right', 'up']",training,"['0', '5', '6', '7']","{'click': {'state': {'target': [], 'time': []}, 'edge': {'target': [], 'time': []}}, 'mouseover': {'state': {'target': [], 'time': []}, 'edge': {'target': [], 'time': []}}, 'mouseout': {'state': {'target': [], 'time': []}, 'edge': {'target': [], 'time': []}}}","[15, -15, -30]","[349, 431.9999999999709, 3384]",2,[],-30,"[None, None, None]","['', -15, -30, -15, 30, 15, -15, -30, 15, -30, -30, 30, 30]",165244,[],mouselab-mdp
2,10,"[1734, 2636, 3617]","['right', 'right', 'down']",training,"['0', '5', '6', '8']","{'click': {'state': {'target': [], 'time': []}, 'edge': {'target': [], 'time': []}}, 'mouseover': {'state': {'target': [], 'time': []}, 'edge': {'target': [], 'time': []}}, 'mouseout': {'state': {'target': [], 'time': []}, 'edge': {'target': [], 'time': []}}}","[-30, 30, -15]","[373, 826, 1732]",2,[],-15,"[None, None, None]","['', 15, -15, 15, 30, -30, 30, 15, -15, -30, 30, -15, -30]",170825,[],mouselab-mdp
2,11,"[1235, 2369, 3316]","['up', 'up', 'right']",training,"['0', '1', '2', '3']","{'click': {'state': {'target': [], 'time': []}, 'edge': {'target': [], 'time': []}}, 'mouseover': {'state': {'target': [], 'time': []}, 'edge': {'target': [], 'time': []}}, 'mouseout': {'state': {'target': [], 'time': []}, 'edge': {'target': [], 'time': []}}}","[-30, -30, 30]","[364, 426, 1233]",2,[],-30,"[None, None, None]","['', -30, -30, 30, -15, 15, -30, 15, -15, -15, -15, 30, 30]",178470,[],mouselab-mdp
2,12,"[1278, 2154, 3076]","['up', 'up', 'left']",training,"['0', '1', '2', '4']","{'click': {'state': {'target': [], 'time': []}, 'edge': {'target': [], 'time': []}}, 'mouseover': {'state': {'target': [], 'time': []}, 'edge': {'target': [], 'time': []}}, 'mouseout': {'state': {'target': [], 'time': []}, 'edge': {'target': [], 'time': []}}}","[-15, -15, -30]","[590.9999999999709, 404, 1275]",2,[],-60,"[None, None, None]","['', -15, -15, -30, -30, 30, 30, -15, 30, -15, -30, 30, 30]",183989,[],mouselab-mdp
2,13,"[955, 1777, 2929]","['left', 'left', 'up']",training,"['0', '9', '10', '11']","{'click': {'state': {'target': [], 'time': []}, 'edge': {'target': [], 'time': []}}, 'mouseover': {'state': {'target': [], 'time': []}, 'edge': {'target': [], 'time': []}}, 'mouseout': {'state': {'target': [], 'time': []}, 'edge': {'target': [], 'time': []}}}","[30, -15, 15]","[338, 376, 952]",2,[],30,"[None, None, None]","['', -15, 15, -30, 15, -30, -15, -15, 30, 30, -15, 15, -15]",189434,[],mouselab-mdp
2,14,"[2315, 3325, 4546]","['right', 'right', 'down']",training,"['0', '5', '6', '8']","{'click': {'state': {'target': [], 'time': []}, 'edge': {'target': [], 'time': []}}, 'mouseover': {'state': {'target': [], 'time': []}, 'edge': {'target': [], 'time': []}}, 'mouseout': {'state': {'target': [], 'time': []}, 'edge': {'target': [], 'time': []}}}","[-30, -15, 30]","[292, 611.0000000000291, 2313]",2,[],-15,"[None, None, None]","['', -30, 15, 30, 30, -30, -15, 30, 30, 30, 30, 15, 15]",194467,[],mouselab-mdp
2,15,"[10110, 11027, 12066]","['up', 'up', 'right']",training,"['0', '1', '2', '3']","{'click': {'state': {'target': [], 'time': []}, 'edge': {'target': [], 'time': []}}, 'mouseover': {'state': {'target': [], 'time': []}, 'edge': {'target': [], 'time': []}}, 'mouseout': {'state': {'target': [], 'time': []}, 'edge': {'target': [], 'time': []}}}","[30, 15, 30]","[473.0000000000291, 695, 10107]",2,[],75,"[None, None, None]","['', 30, 15, 30, -30, -15, -15, -15, 30, -15, -15, -30, -15]",199315,[],mouselab-mdp
2,16,"[991, 1791, 2929]","['right', 'right', 'up']",training,"['0', '5', '6', '7']","{'click': {'state': {'target': [], 'time': []}, 'edge': {'target': [], 'time': []}}, 'mouseover': {'state': {'target': [], 'time': []}, 'edge': {'target': [], 'time': []}}, 'mouseout': {'state': {'target': [], 'time': []}, 'edge': {'target': [], 'time': []}}}","[-30, -15, 15]","[377.9999999999709, 484, 988.9999999999709]",2,[],-30,"[None, None, None]","['', 15, 30, 30, 30, -30, -15, 15, -15, 15, -15, 15, 15]",206057,[],mouselab-mdp
2,17,"[868, 1666, 2634]","['left', 'left', 'up']",training,"['0', '9', '10', '11']","{'click': {'state': {'target': [], 'time': []}, 'edge': {'target': [], 'time': []}}, 'mouseover': {'state': {'target': [], 'time': []}, 'edge': {'target': [], 'time': []}}, 'mouseout': {'state': {'target': [], 'time': []}, 'edge': {'target': [], 'time': []}}}","[15, 30, 15]","[263, 602, 866]",2,[],60,"[None, None, None]","['', 30, 15, -30, -15, 30, 15, -30, -30, 15, 30, 15, 15]",220018,[],mouselab-mdp
2,18,"[1967, 2914, 3832]","['up', 'up', 'right']",training,"['0', '1', '2', '3']","{'click': {'state': {'target': [], 'time': []}, 'edge': {'target': [], 'time': []}}, 'mouseover': {'state': {'target': [], 'time': []}, 'edge': {'target': [], 'time': []}}, 'mouseout': {'state': {'target': [], 'time': []}, 'edge': {'target': [], 'time': []}}}","[-15, 15, 30]","[249, 443.0000000000291, 1964]",2,[],30,"[None, None, None]","['', -15, 15, 30, -15, 15, -30, 15, -15, 15, 30, -15, -15]",224757,[],mouselab-mdp
2,19,"[2415, 3277, 4276]","['right', 'right', 'down']",training,"['0', '5', '6', '8']","{'click': {'state': {'target': [], 'time': []}, 'edge': {'target': [], 'time': []}}, 'mouseover': {'state': {'target': [], 'time': []}, 'edge': {'target': [], 'time': []}}, 'mouseout': {'state': {'target': ['0'], 'time': [3011]}, 'edge': {'target': [], 'time': []}}}","[15, 30, 30]","[418, 370, 2411.999999999971]",2,[],75,"[None, None, None]","['', 15, 15, 30, 15, 15, 30, 15, 30, 15, 15, 15, 30]",229239,[],mouselab-mdp
2,20,"[2469, 3324, 4310]","['left', 'left', 'up']",training,"['0', '9', '10', '11']","{'click': {'state': {'target': [], 'time': []}, 'edge': {'target': [], 'time': []}}, 'mouseover': {'state': {'target': [], 'time': []}, 'edge': {'target': [], 'time': []}}, 'mouseout': {'state': {'target': [], 'time': []}, 'edge': {'target': [], 'time': []}}}","[15, 15, 15]","[321, 454.0000000000291, 2467]",2,[],45,"[None, None, None]","['', -30, 15, -30, 15, 15, 30, -15, 30, 15, 15, 15, 15]",234808,[],mouselab-mdp
2,21,"[1209, 2011, 3022]","['right', 'right', 'down']",training,"['0', '5', '6', '8']","{'click': {'state': {'target': [], 'time': []}, 'edge': {'target': [], 'time': []}}, 'mouseover': {'state': {'target': [], 'time': []}, 'edge': {'target': [], 'time': []}}, 'mouseout': {'state': {'target': [], 'time': []}, 'edge': {'target': [], 'time': []}}}","[-15, 30, 15]","[307.0000000000291, 442, 1207]",2,[],30,"[None, None, None]","['', -30, 30, 30, 30, -15, 30, -15, 15, 15, -15, -30, 15]",240921,[],mouselab-mdp
2,22,"[909, 1748, 3024]","['up', 'up', 'right']",training,"['0', '1', '2', '3']","{'click': {'state': {'target': [], 'time': []}, 'edge': {'target': [], 'time': []}}, 'mouseover': {'state': {'target': [], 'time': []}, 'edge': {'target': [], 'time': []}}, 'mouseout': {'state': {'target': [], 'time': []}, 'edge': {'target': [], 'time': []}}}","[30, -30, 15]","[265, 492.0000000000291, 907]",2,[],15,"[None, None, None]","['', 30, -30, 15, 30, 30, 30, 15, 30, -15, 15, 30, 15]",246564,[],mouselab-mdp
2,23,"[853, 1735, 2956]","['right', 'right', 'up']",training,"['0', '5', '6', '7']","{'click': {'state': {'target': [], 'time': []}, 'edge': {'target': [], 'time': []}}, 'mouseover': {'state': {'target': [], 'time': []}, 'edge': {'target': [], 'time': []}}, 'mouseout': {'state': {'target': [], 'time': []}, 'edge': {'target': [], 'time': []}}}","[-15, 30, -15]","[293.9999999999709, 744.0000000000291, 850.0000000000291]",2,[],0,"[None, None, None]","['', -15, 30, 15, 15, -15, 30, -15, 15, -30, 30, 30, -30]",251015,[],mouselab-mdp
2,24,"[1063, 2221, 3270]","['left', 'left', 'up']",training,"['0', '9', '10', '11']","{'click': {'state': {'target': [], 'time': []}, 'edge': {'target': [], 'time': []}}, 'mouseover': {'state': {'target': [], 'time': []}, 'edge': {'target': [], 'time': []}}, 'mouseout': {'state': {'target': [], 'time': []}, 'edge': {'target': [], 'time': []}}}","[-30, -30, -30]","[332.0000000000582, 685, 1060]",2,[],-90,"[None, None, None]","['', -30, 15, -15, 30, -15, -15, -15, 30, -30, -30, -30, 15]",255238,[],mouselab-mdp
2,25,"[588, 1418, 2273]","['right', 'right', 'down']",training,"['0', '5', '6', '8']","{'click': {'state': {'target': [], 'time': []}, 'edge': {'target': [], 'time': []}}, 'mouseover': {'state': {'target': [], 'time': []}, 'edge': {'target': [], 'time': []}}, 'mouseout': {'state': {'target': [], 'time': []}, 'edge': {'target': [], 'time': []}}}","[15, -30, -30]","[603, 500, 586]",2,[],-45,"[None, None, None]","['', 30, 30, 15, 30, 15, -30, 15, -30, 30, -30, -30, 15]",259795,[],mouselab-mdp
2,26,"[818, 1460, 2262]","['up', 'up', 'left']",training,"['0', '1', '2', '4']","{'click': {'state': {'target': [], 'time': []}, 'edge': {'target': [], 'time': []}}, 'mouseover': {'state': {'target': [], 'time': []}, 'edge': {'target': [], 'time': []}}, 'mouseout': {'state': {'target': [], 'time': []}, 'edge': {'target': [], 'time': []}}}","[-30, 30, 15]","[292, 327, 815]",2,[],15,"[None, None, None]","['', -30, 30, -30, 15, -30, 30, 30, -30, 30, 15, -30, 15]",264471,[],mouselab-mdp
2,27,"[1632, 2412, 3206]","['up', 'up', 'right']",training,"['0', '1', '2', '3']","{'click': {'state': {'target': [], 'time': []}, 'edge': {'target': [], 'time': []}}, 'mouseover': {'state': {'target': [], 'time': []}, 'edge': {'target': [], 'time': []}}, 'mouseout': {'state': {'target': [], 'time': []}, 'edge': {'target': [], 'time': []}}}","[15, -30, 15]","[101, 287, 1629]",2,[],0,"[None, None, None]","['', 15, -30, 15, -15, -30, 15, 15, 15, 15, -30, 15, -30]",268063,[],mouselab-mdp
2,28,"[1399, 2257, 3107]","['left', 'left', 'down']",training,"['0', '9', '10', '12']","{'click': {'state': {'target': [], 'time': []}, 'edge': {'target': [], 'time': []}}, 'mouseover': {'state': {'target': [], 'time': []}, 'edge': {'target': [], 'time': []}}, 'mouseout': {'state': {'target': [], 'time': []}, 'edge': {'target': [], 'time': []}}}","[30, 15, -30]","[241, 262, 1396]",2,[],15,"[None, None, None]","['', -15, 30, 30, 15, 30, -30, -15, 30, 30, 15, 30, -30]",271636,[],mouselab-mdp
2,29,"[816, 1651, 2910]","['right', 'right', 'up']",training,"['0', '5', '6', '7']","{'click': {'state': {'target': [], 'time': []}, 'edge': {'target': [], 'time': []}}, 'mouseover': {'state': {'target': [], 'time': []}, 'edge': {'target': [], 'time': []}}, 'mouseout': {'state': {'target': [], 'time': []}, 'edge': {'target': [], 'time': []}}}","[-15, -30, -15]","[317.0000000000582, 316, 812]",2,[],-60,"[None, None, None]","['', 15, 30, -15, 15, -15, -30, -15, 30, -15, 15, 15, 30]",276283,[],mouselab-mdp
2,30,"[1059, 1771, 2589]","['up', 'up', 'left']",training,"['0', '1', '2', '4']","{'click': {'state': {'target': [], 'time': []}, 'edge': {'target': [], 'time': []}}, 'mouseover': {'state': {'target': [], 'time': []}, 'edge': {'target': [], 'time': []}}, 'mouseout': {'state': {'target': [], 'time': []}, 'edge': {'target': [], 'time': []}}}","[-30, 15, -15]","[298, 722.9999999999418, 1057.0000000000582]",2,[],-30,"[None, None, None]","['', -30, 15, -30, -15, 30, -30, -30, -15, 30, 15, -15, -30]",281098,[],mouselab-mdp
2,31,"[757, 1555, 2317]","['left', 'left', 'up']",training,"['0', '9', '10', '11']","{'click': {'state': {'target': [], 'time': []}, 'edge': {'target': [], 'time': []}}, 'mouseover': {'state': {'target': [], 'time': []}, 'edge': {'target': [], 'time': []}}, 'mouseout': {'state': {'target': [], 'time': []}, 'edge': {'target': [], 'time': []}}}","[-15, 30, 30]","[160, 277, 755]",2,[],45,"[None, None, None]","['', -15, 30, 15, 15, -15, -15, 30, 30, -15, 30, 30, 30]",285199,[],mouselab-mdp
2,32,"[1616, 2466, 3343]","['left', 'left', 'down']",training,"['0', '9', '10', '12']","{'click': {'state': {'target': [], 'time': []}, 'edge': {'target': [], 'time': []}}, 'mouseover': {'state': {'target': [], 'time': []}, 'edge': {'target': [], 'time': []}}, 'mouseout': {'state': {'target': [], 'time': []}, 'edge': {'target': [], 'time': []}}}","[15, -15, -15]","[253, 247.9999999999418, 1614]",2,[],-15,"[None, None, None]","['', 15, -15, -15, 30, -15, -15, 30, 30, 15, -15, 15, -15]",289364,[],mouselab-mdp
2,33,"[970, 1775, 2936]","['right', 'right', 'down']",training,"['0', '5', '6', '8']","{'click': {'state': {'target': [], 'time': []}, 'edge': {'target': [], 'time': []}}, 'mouseover': {'state': {'target': [], 'time': []}, 'edge': {'target': [], 'time': []}}, 'mouseout': {'state': {'target': [], 'time': []}, 'edge': {'target': [], 'time': []}}}","[-15, 15, 15]","[308, 351, 967]",2,[],15,"[None, None, None]","['', 15, -30, -30, -15, -15, 15, 30, 15, 30, 30, -15, -15]",292974,[],mouselab-mdp
2,34,"[885, 1515, 2524]","['up', 'up', 'left']",training,"['0', '1', '2', '4']","{'click': {'state': {'target': [], 'time': []}, 'edge': {'target': [], 'time': []}}, 'mouseover': {'state': {'target': [], 'time': []}, 'edge': {'target': [], 'time': []}}, 'mouseout': {'state': {'target': ['0'], 'time': [5105]}, 'edge': {'target': [], 'time': []}}}","[15, 30, -30]","[254, 625, 882]",2,[],15,"[None, None, None]","['', 15, 30, -30, -30, -30, -30, 15, 15, -15, -30, -30, -15]",297686,[],mouselab-mdp
3,0,"[27370, 31801, 33409]","['up', 'up', 'right']",training,"['0', '1', '2', '3']","{'click': {'state': {'target': ['5', '9', '10', '12', '11', '8', '6', '7', '1', '2', '3', '4'], 'time': [2361, 3479, 8614, 10617, 11945, 14276, 14835, 15480, 15997, 18240, 18618, 19164]}, 'edge': {'target': [], 'time': []}}, 'mouseover': {'state': {'target': ['0', '5', '8', '0', '9', '10', '12', '11', '0', '8', '6', '7', '1', '2', '3', '4'], 'time': [1743, 2022, 2837, 3072, 3220, 8099, 10336, 11434, 12770, 13284, 14732, 15194, 15793, 16243, 18459, 18907]}, 'edge': {'target': [], 'time': []}}, 'mouseout': {'state': {'target': ['0', '5', '8', '0', '9', '10', '12', '10', '11', '9', '0', '8', '6', '7', '1', '2', '3', '2', '4', '1'], 'time': [1786, 2692, 2975, 3120, 7872, 9032, 10951, 11185, 12337, 12667, 12813, 14594, 15110, 15660, 16176, 18391, 18807, 18875, 19457, 34722]}, 'edge': {'target': [], 'time': []}}}","[-34, -11, 6]","[70074.19999998808, 15121.200000017881, 27366.40000000596]",1,0,-51,"[None, None, None]","['', -34, -11, 6, 3, -67, 6, -3, -3, -34, -11, -3, -3]",70087,[],mouselab-mdp
3,1,"[4995, 9025, 11671]","['right', 'right', 'up']",training,"['0', '5', '6', '7']","{'click': {'state': {'target': ['5'], 'time': [3029]}, 'edge': {'target': [], 'time': []}}, 'mouseover': {'state': {'target': ['0', '1', '5', '9', '0'], 'time': [1327, 1759, 2427, 3625, 4145]}, 'edge': {'target': [], 'time': []}}, 'mouseout': {'state': {'target': ['0', '1', '5', '9', '0', '6', '7', '6'], 'time': [1462, 2309, 3413, 4046, 4278, 8311, 9775, 13275]}, 'edge': {'target': [], 'time': []}}}","[67, 11, -3]","[3910.0999999940395, 1082.199999988079, 4991.300000011921]",1,2.5,74,"[None, None, None]","['', 67, -6, -3, 6, 67, 11, -3, 6, 34, 6, 3, 6]",85213,[],mouselab-mdp
3,2,"[6917, 7641, 8279]","['right', 'right', 'up']",training,"['0', '5', '6', '7']","{'click': {'state': {'target': ['5', '6', '7', '8'], 'time': [1141, 3769, 4396, 5127]}, 'edge': {'target': [], 'time': []}}, 'mouseover': {'state': {'target': ['5', '6', '7', '8'], 'time': [596, 1944, 4227, 4840]}, 'edge': {'target': [], 'time': []}}, 'mouseout': {'state': {'target': ['5', '6', '7', '6', '8', '8'], 'time': [1661, 4163, 4592, 4724, 5411, 9227]}, 'edge': {'target': [], 'time': []}}}","[67, -6, 3]","[3510.0999999940395, 2124.9000000059605, 6913.399999976158]",1,[],60,"[None, None, None]","['', -34, 6, 3, 3, 67, -6, 3, -3, 34, 6, 3, 3]",121954,[],mouselab-mdp
3,3,"[13243, 13794, 14668]","['up', 'up', 'left']",training,"['0', '1', '2', '4']","{'click': {'state': {'target': ['5', '9', '1', '6', '2', '8', '7', '3', '4'], 'time': [740, 1707, 2245, 4870, 5581, 7834, 8478, 9312, 9983]}, 'edge': {'target': [], 'time': []}}, 'mouseover': {'state': {'target': ['0', '5', '0', '9', '1', '0', '6', '2', '8', '7', '3', '4'], 'time': [492, 590, 1274, 1406, 2120, 2672, 3776, 5393, 7219, 8200, 9168, 9866]}, 'edge': {'target': [], 'time': []}}, 'mouseout': {'state': {'target': ['0', '5', '0', '9', '1', '0', '5', '6', '2', '6', '6', '8', '6', '7', '3', '2', '4', '5'], 'time': [527, 1159, 1322, 1954, 2453, 2738, 3558, 5052, 5753, 6969, 7152, 7984, 8134, 8890, 9467, 9650, 10200, 15452]}, 'edge': {'target': [], 'time': []}}}","[34, 6, 6]","[209.30000001192093, 114.90000000596046, 13240.200000017881]",1,[],37,"[None, None, None]","['', 34, 6, -6, 6, 34, 6, -6, 3, -34, 11, -6, -3]",136170,[],mouselab-mdp
3,4,"[5470, 6109, 6985]","['right', 'right', 'down']",training,"['0', '5', '6', '8']","{'click': {'state': {'target': ['5', '1', '9', '6', '8', '7'], 'time': [781, 1307, 1728, 3103, 4034, 4579]}, 'edge': {'target': [], 'time': []}}, 'mouseover': {'state': {'target': ['0', '5', '1', '9', '6', '6', '8', '7'], 'time': [588, 671, 1155, 1538, 2588, 2872, 3677, 4421]}, 'edge': {'target': [], 'time': []}}, 'mouseout': {'state': {'target': ['0', '5', '1', '9', '6', '6', '8', '6', '7', '6'], 'time': [605, 972, 1439, 1959, 2621, 3570, 4187, 4354, 4803, 7858]}, 'edge': {'target': [], 'time': []}}}","[67, -11, 6]","[37.599999994039536, 361.59999999403954, 5465.300000011921]",1,[],56,"[None, None, None]","['', -34, -6, -3, -6, 67, -11, -3, 6, -67, 6, 6, 3]",146212,[],mouselab-mdp
3,5,"[13771, 14618, 15411]","['right', 'right', 'down']",training,"['0', '5', '6', '8']","{'click': {'state': {'target': ['5', '1', '9', '6', '2', '10', '8', '7', '3', '4'], 'time': [1549, 2035, 2539, 5150, 5992, 6629, 8535, 9431, 11181, 11727]}, 'edge': {'target': [], 'time': []}}, 'mouseover': {'state': {'target': ['5', '1', '9', '8', '6', '2', '10', '12', '8', '7', '3', '4'], 'time': [959, 1882, 2358, 3565, 4509, 5841, 6423, 7023, 7690, 9256, 10897, 11504]}, 'edge': {'target': [], 'time': []}}, 'mouseout': {'state': {'target': ['5', '1', '9', '8', '6', '2', '10', '12', '8', '6', '7', '3', '2', '4', '7'], 'time': [1692, 2209, 2791, 4446, 5357, 6223, 6890, 7056, 8743, 9075, 9723, 11337, 11437, 12120, 12423]}, 'edge': {'target': [], 'time': []}}}","[-67, 6, 6]","[113.5, 356, 13767.59999999404]",1,[],-65,"[None, None, None]","['', -67, 6, -3, 6, -67, 6, 6, 6, -67, -6, 6, 3]",162325,[],mouselab-mdp
3,6,"[2901, 3845, 5912]","['right', 'right', 'down']",training,"['0', '5', '6', '8']","{'click': {'state': {'target': ['5', '1', '9'], 'time': [931, 1540, 2031]}, 'edge': {'target': [], 'time': []}}, 'mouseover': {'state': {'target': ['6', '5', '1', '9', '0'], 'time': [600, 716, 1353, 1902, 2537]}, 'edge': {'target': [], 'time': []}}, 'mouseout': {'state': {'target': ['6', '5', '1', '9', '0'], 'time': [666, 1204, 1753, 2404, 2569]}, 'edge': {'target': [], 'time': []}}}","[34, 6, -3]","[324.59999999403954, 267.7999999821186, 2897.0999999940395]",1,[],34,"[None, None, None]","['', -34, 6, 3, 6, 34, 6, -6, -3, -34, -11, 3, 3]",170893,[],mouselab-mdp
3,7,"[10721, 11343, 12293]","['up', 'up', 'left']",training,"['0', '1', '2', '4']","{'click': {'state': {'target': ['5', '1', '9', '6', '8', '7', '2', '3', '4'], 'time': [4036, 5501, 6314, 7028, 7438, 7921, 8523, 9029, 9548]}, 'edge': {'target': [], 'time': []}}, 'mouseover': {'state': {'target': ['6', '8', '5', '5', '1', '9', '9', '0', '6', '8', '7', '2', '3', '4'], 'time': [None, 1333, 1815, 3852, 4648, 5746, 5996, 6613, 6746, 7333, 7762, 8383, 8778, 9414]}, 'edge': {'target': [], 'time': []}}, 'mouseout': {'state': {'target': ['6', '8', '5', '5', '1', '9', '9', '0', '5', '6', '8', '6', '7', '2', '3', '2', '4', '1', '9'], 'time': [1253, 1355, 2773, 4486, 5680, 5846, 6562, 6646, 6713, 7265, 7612, 7695, 8080, 8712, 9195, 9314, 9812, 12976, 13414]}, 'edge': {'target': [], 'time': []}}}","[34, 11, 6]","[427.30000001192093, 1538.7000000178814, 10716.700000017881]",1,[],42,"[None, None, None]","['', 34, 11, -3, 6, 34, -11, -3, 3, -67, -6, 3, -3]",187965,[],mouselab-mdp
3,8,"[6057, 6743, 7664]","['left', 'left', 'down']",training,"['0', '9', '10', '12']","{'click': {'state': {'target': ['5', '1', '9', '10'], 'time': [976, 1547, 1951, 3761]}, 'edge': {'target': [], 'time': []}}, 'mouseover': {'state': {'target': ['0', '5', '1', '9', '10'], 'time': [480, 826, 1380, 1794, 3542]}, 'edge': {'target': [], 'time': []}}, 'mouseout': {'state': {'target': ['0', '5', '1', '9', '10', '10'], 'time': [643, 1297, 1707, 3513, 4428, 5829]}, 'edge': {'target': [], 'time': []}}}","[-34, 6, -3]","[107.80000001192093, 424.09999999403954, 6053.799999982119]",1,[],-35,"[None, None, None]","['', -67, 6, 3, 6, -67, -6, 6, 3, -34, 6, 6, -3]",195935,[],mouselab-mdp
3,9,"[2495, 3123, 3756]","['right', 'right', 'down']",training,"['0', '5', '6', '8']","{'click': {'state': {'target': ['5'], 'time': [1239]}, 'edge': {'target': [], 'time': []}}, 'mouseover': {'state': {'target': ['0', '5', '1'], 'time': [860, 1153, 1758]}, 'edge': {'target': [], 'time': []}}, 'mouseout': {'state': {'target': ['0', '5', '1', '5', '6', '5'], 'time': [970, 1625, 2340, 2773, 4738, 4985]}, 'edge': {'target': [], 'time': []}}}","[67, -11, -6]","[162.40000000596046, 385.09999999403954, 2491.9000000059605]",1,[],49,"[None, None, None]","['', -34, -6, -6, 6, 67, -11, -3, -6, -67, 6, 3, 6]",210793,[],mouselab-mdp
3,10,"[4452, 5006, 5594]","['right', 'right', 'up']",training,"['0', '5', '6', '7']","{'click': {'state': {'target': ['5', '7'], 'time': [544, 3166]}, 'edge': {'target': [], 'time': []}}, 'mouseover': {'state': {'target': ['5', '1', '6', '6', '7', '6', '6'], 'time': [334, 1313, 1714, 2349, 2729, 3427, 3630]}, 'edge': {'target': [], 'time': []}}, 'mouseout': {'state': {'target': ['5', '1', '6', '6', '7', '6', '6'], 'time': [766, 1480, 1934, 2667, 3361, 3561, 3664]}, 'edge': {'target': [], 'time': []}}}","[67, 11, 6]","[112.2999999821186, 112.90000000596046, 4449.0999999940395]",1,[],82,"[None, None, None]","['', 34, -11, 6, -3, 67, 11, 6, -6, 34, 6, -6, -6]",221124,[],mouselab-mdp
3,11,"[7300, 7846, 8425]","['up', 'up', 'right']",training,"['0', '1', '2', '3']","{'click': {'state': {'target': ['5', '1', '9', '3', '4'], 'time': [887, 1667, 2632, 5386, 6135]}, 'edge': {'target': [], 'time': []}}, 'mouseover': {'state': {'target': ['5', '0', '1', '9', '0', '2', '3', '2', '4'], 'time': [553, 1356, 1451, 2288, 2983, 3432, 3836, 5774, 5798]}, 'edge': {'target': [], 'time': []}}, 'mouseout': {'state': {'target': ['5', '0', '1', '9', '0', '1', '2', '3', '2', '4', '1'], 'time': [1323, 1370, 1816, 2882, 3002, 3082, 3582, 5735, 5793, 6398, 6548]}, 'edge': {'target': [], 'time': []}}}","[34, -6, -3]","[37.30000001192093, 76.90000000596046, 7297.699999988079]",1,[],20,"[None, None, None]","['', 34, -6, -3, -6, -67, -6, 6, -6, -67, -11, -3, 6]",226575,[],mouselab-mdp
3,12,"[4083, 4652, 5735]","['up', 'up', 'right']",training,"['0', '1', '2', '3']","{'click': {'state': {'target': ['1', '3'], 'time': [1086, 3037]}, 'edge': {'target': [], 'time': []}}, 'mouseover': {'state': {'target': ['1', '5', '3', '2'], 'time': [834, 1525, 2513, 3292]}, 'edge': {'target': [], 'time': []}}, 'mouseout': {'state': {'target': ['1', '5', '3', '2'], 'time': [1276, 2113, 3228, 3408]}, 'edge': {'target': [], 'time': []}}}","[67, 11, 3]","[20.5, 52.19999998807907, 4078.5]",1,[],79,"[None, None, None]","['', 67, 11, 3, -3, -34, 6, 3, -3, 67, -6, -6, 6]",234012,[],mouselab-mdp
3,13,"[3481, 4131, 5127]","['right', 'right', 'down']",training,"['0', '5', '6', '8']","{'click': {'state': {'target': ['5', '7'], 'time': [1267, 2838]}, 'edge': {'target': [], 'time': []}}, 'mouseover': {'state': {'target': ['1', '0', '0', '5', '6', '7', '6'], 'time': [388, 550, 650, 883, 2237, 2449, 3115]}, 'edge': {'target': [], 'time': []}}, 'mouseout': {'state': {'target': ['1', '0', '0', '5', '6', '7', '6', '8'], 'time': [486, 584, 684, 1682, 2351, 3032, 3184, 6351]}, 'edge': {'target': [], 'time': []}}}","[67, 6, 6]","[31.900000005960464, 541.9000000059605, 3479]",1,[],77,"[None, None, None]","['', -34, 11, 6, 6, 67, 6, -6, 6, 67, -6, 6, -3]",244702,[],mouselab-mdp
3,14,"[3088, 4306, 5198]","['up', 'up', 'right']",training,"['0', '1', '2', '3']","{'click': {'state': {'target': ['5', '7'], 'time': [948, 2196]}, 'edge': {'target': [], 'time': []}}, 'mouseover': {'state': {'target': ['5', '7', '6', '8'], 'time': [333, 1782, 2464, 2646]}, 'edge': {'target': [], 'time': []}}, 'mouseout': {'state': {'target': ['5', '7', '6', '8'], 'time': [1468, 2399, 2580, 5966]}, 'edge': {'target': [], 'time': []}}}","[34, -11, 6]","[121.19999998807907, 453.09999999403954, 3085.5999999940395]",1,[],27,"[None, None, None]","['', 34, -11, 6, -6, 67, 6, 6, -6, 34, -11, -3, 6]",252061,[],mouselab-mdp
3,15,"[6922, 7537, 8146]","['right', 'right', 'up']",training,"['0', '5', '6', '7']","{'click': {'state': {'target': ['5', '9', '1', '7'], 'time': [1146, 2938, 4127, 6002]}, 'edge': {'target': [], 'time': []}}, 'mouseover': {'state': {'target': ['5', '0', '9', '0', '0', '1', '7', '6', '8'], 'time': [1004, 2150, 2518, 3265, 3318, 3530, 5782, 6262, 6579]}, 'edge': {'target': [], 'time': []}}, 'mouseout': {'state': {'target': ['5', '5', '0', '9', '0', '0', '1', '7', '6', '8'], 'time': [1501, 2103, 2171, 3115, 3297, 3334, 4380, 6182, 6413, 9416]}, 'edge': {'target': [], 'time': []}}}","[34, -11, 3]","[695.8999999761581, 361.89999997615814, 6919.300000011921]",1,[],22,"[None, None, None]","['', -34, -11, 6, -3, 34, -11, 3, 6, 34, -11, -6, 6]",259234,[],mouselab-mdp
3,16,"[2007, 2837, 4357]","['right', 'right', 'down']",training,"['0', '5', '6', '8']","{'click': {'state': {'target': ['5'], 'time': [1033]}, 'edge': {'target': [], 'time': []}}, 'mouseover': {'state': {'target': ['0', '5'], 'time': [562, 662]}, 'edge': {'target': [], 'time': []}}, 'mouseout': {'state': {'target': ['0', '5', '5', '6', '7', '5'], 'time': [597, 1518, 1667, 2286, 5216, 5328]}, 'edge': {'target': [], 'time': []}}}","[67, 6, 3]","[79.89999997615814, 82.40000000596046, 2004.5999999940395]",1,[],75,"[None, None, None]","['', -34, -6, 6, -3, 67, 6, -3, 3, -34, -6, -6, -6]",266245,[],mouselab-mdp
3,17,"[7459, 8113, 8779]","['left', 'left', 'down']",training,"['0', '9', '10', '12']","{'click': {'state': {'target': ['5', '9', '1', '12'], 'time': [836, 1786, 2802, 5966]}, 'edge': {'target': [], 'time': []}}, 'mouseover': {'state': {'target': ['5', '0', '0', '9', '9', '1', '0', '12'], 'time': [571, 1268, 1332, 1398, 1653, 2619, 3234, 3867]}, 'edge': {'target': [], 'time': []}}, 'mouseout': {'state': {'target': ['5', '0', '0', '9', '9', '1', '0', '12', '10', '12'], 'time': [1220, 1287, 1352, 1449, 2048, 3081, 3265, 6418, 9013, 12343]}, 'edge': {'target': [], 'time': []}}}","[34, -6, 3]","[310.7999999821186, 999.9000000059605, 7457.399999976158]",1,[],27,"[None, None, None]","['', -67, 6, 3, -6, -67, 6, 3, 3, 34, -6, 3, 3]",276638,[],mouselab-mdp
3,18,"[6812, 7813, 8781]","['right', 'right', 'up']",training,"['0', '5', '6', '7']","{'click': {'state': {'target': ['5', '7'], 'time': [988, 3519]}, 'edge': {'target': [], 'time': []}}, 'mouseover': {'state': {'target': ['0', '5', '0', '9', '6', '7'], 'time': [611, 808, 1292, 1762, 2857, 3259]}, 'edge': {'target': [], 'time': []}}, 'mouseout': {'state': {'target': ['0', '5', '0', '9', '5', '6', '7', '6'], 'time': [642, 1208, 1479, 2580, 2814, 2891, 4129, 16343]}, 'edge': {'target': [], 'time': []}}}","[34, 6, 3]","[140.80000001192093, 137.2000000178814, 6808.800000011921]",1,[],41,"[None, None, None]","['', -67, 11, 3, -3, 34, 6, 3, 3, 34, 6, 6, -6]",282785,[],mouselab-mdp
3,19,"[6436, 7156, 7774]","['right', 'right', 'down']",training,"['0', '5', '6', '8']","{'click': {'state': {'target': ['5', '9', '1'], 'time': [1925, 2702, 3294]}, 'edge': {'target': [], 'time': []}}, 'mouseover': {'state': {'target': ['5', '0', '9', '1', '6'], 'time': [1027, 2380, 2439, 3123, 5140]}, 'edge': {'target': [], 'time': []}}, 'mouseout': {'state': {'target': ['5', '0', '9', '1', '6'], 'time': [2328, 2404, 3057, 3993, 8641]}, 'edge': {'target': [], 'time': []}}}","[-67, -6, -6]","[481.90000000596046, 434.7999999821186, 6423.0999999940395]",1,[],-82,"[None, None, None]","['', -67, -6, 3, 6, -67, -6, -6, -6, -67, 6, -3, -6]",296176,[],mouselab-mdp
3,20,"[3522, 4160, 4813]","['up', 'up', 'right']",training,"['0', '1', '2', '3']","{'click': {'state': {'target': ['5', '1'], 'time': [1970, 2695]}, 'edge': {'target': [], 'time': []}}, 'mouseover': {'state': {'target': ['0', '5', '0', '0', '1', '9'], 'time': [1512, 1808, 2389, 2430, 2539, 2976]}, 'edge': {'target': [], 'time': []}}, 'mouseout': {'state': {'target': ['0', '5', '0', '0', '1', '9', '1', '0'], 'time': [1574, 2339, 2406, 2462, 2872, 3790, 3993, 5771]}, 'edge': {'target': [], 'time': []}}}","[34, -11, 3]","[177.5, 90.2000000178814, 3519.199999988079]",1,[],24,"[None, None, None]","['', 34, -11, 3, 3, -67, 11, -6, -6, -34, -6, 6, -6]",313417,[],mouselab-mdp
3,21,"[6396, 7404, 8054]","['right', 'right', 'down']",training,"['0', '5', '6', '8']","{'click': {'state': {'target': ['5'], 'time': [4806]}, 'edge': {'target': [], 'time': []}}, 'mouseover': {'state': {'target': ['0', '5', '7'], 'time': [1273, 1582, 6087]}, 'edge': {'target': [], 'time': []}}, 'mouseout': {'state': {'target': ['0', '5', '7', '5'], 'time': [1324, 5886, 7103, 9219]}, 'edge': {'target': [], 'time': []}}}","[67, 6, 3]","[110.2999999821186, 95, 6394.5]",1,[],75,"[None, None, None]","['', 34, 6, 6, -3, 67, 6, 6, 3, -34, 6, -3, -6]",322774,[],mouselab-mdp
3,22,"[5184, 6131, 6982]","['left', 'left', 'down']",training,"['0', '9', '10', '12']","{'click': {'state': {'target': ['5', '1', '9'], 'time': [2982, 3665, 4207]}, 'edge': {'target': [], 'time': []}}, 'mouseover': {'state': {'target': ['0', '1', '5', '1', '9', '10'], 'time': [2516, 2593, 2759, 3484, 4045, 4603]}, 'edge': {'target': [], 'time': []}}, 'mouseout': {'state': {'target': ['0', '1', '5', '1', '9', '10'], 'time': [2551, 2693, 3431, 3844, 4562, 4812]}, 'edge': {'target': [], 'time': []}}}","[67, -11, 6]","[458.30000001192093, 122.09999999403954, 5181.5999999940395]",1,[],59,"[None, None, None]","['', -34, -6, -6, -6, -67, -11, 3, -3, 67, -11, 3, 6]",329418,[],mouselab-mdp
3,23,"[3213, 3947, 4537]","['right', 'right', 'up']",training,"['0', '5', '6', '7']","{'click': {'state': {'target': ['9', '1', '5'], 'time': [1007, 1710, 2314]}, 'edge': {'target': [], 'time': []}}, 'mouseover': {'state': {'target': ['9', '1', '5'], 'time': [891, 1430, 2130]}, 'edge': {'target': [], 'time': []}}, 'mouseout': {'state': {'target': ['9', '1', '5'], 'time': [1296, 2083, 3632]}, 'edge': {'target': [], 'time': []}}}","[67, 11, -3]","[391.90000000596046, 315.80000001192093, 3208.9000000059605]",1,[],72,"[None, None, None]","['', -34, -6, -6, -6, 67, 11, -3, 3, 34, -6, -6, -3]",339500,[],mouselab-mdp
3,24,"[1809, 2725, 3653]","['right', 'right', 'up']",training,"['0', '5', '6', '7']","{'click': {'state': {'target': ['5'], 'time': [1135]}, 'edge': {'target': [], 'time': []}}, 'mouseover': {'state': {'target': ['5', '0'], 'time': [1044, 1427]}, 'edge': {'target': [], 'time': []}}, 'mouseout': {'state': {'target': ['5', '0'], 'time': [1377, 1447]}, 'edge': {'target': [], 'time': []}}}","[67, 11, -3]","[204.09999999403954, 53, 1807.0999999940395]",1,[],74,"[None, None, None]","['', -34, -6, 6, 3, 67, 11, -3, -3, -34, 11, 3, 6]",348125,[],mouselab-mdp
3,25,"[1293, 2034, 3279]","['right', 'right', 'down']",training,"['0', '5', '6', '8']","{'click': {'state': {'target': ['5'], 'time': [827]}, 'edge': {'target': [], 'time': []}}, 'mouseover': {'state': {'target': ['5'], 'time': [770]}, 'edge': {'target': [], 'time': []}}, 'mouseout': {'state': {'target': ['5'], 'time': [1591]}, 'edge': {'target': [], 'time': []}}}","[67, 11, 3]","[388.40000000596046, 398.90000000596046, 1290.9000000059605]",1,[],80,"[None, None, None]","['', -67, 6, 6, -6, 67, 11, -6, 3, 67, 6, -3, -3]",354421,[],mouselab-mdp
3,26,"[2087, 2897, 4113]","['right', 'right', 'up']",training,"['0', '5', '6', '7']","{'click': {'state': {'target': ['5'], 'time': [843]}, 'edge': {'target': [], 'time': []}}, 'mouseover': {'state': {'target': ['5', '0'], 'time': [474, 1196]}, 'edge': {'target': [], 'time': []}}, 'mouseout': {'state': {'target': ['5', '0', '0'], 'time': [1159, 1241, 5159]}, 'edge': {'target': [], 'time': []}}}","[34, -6, -6]","[219.59999999403954, 697.2999999821186, 2084.5]",1,[],21,"[None, None, None]","['', -67, -6, 3, -6, 34, -6, -6, -3, 34, 11, -6, 6]",359821,[],mouselab-mdp
3,27,"[2368, 3064, 4673]","['right', 'right', 'down']",training,"['0', '5', '6', '8']","{'click': {'state': {'target': ['5', '9', '1'], 'time': [559, 1503, 1829]}, 'edge': {'target': [], 'time': []}}, 'mouseover': {'state': {'target': ['5', '0', '9', '1', '0', '0'], 'time': [416, 1056, 1422, 1749, 2165, 2248]}, 'edge': {'target': [], 'time': []}}, 'mouseout': {'state': {'target': ['5', '0', '9', '1', '0', '0'], 'time': [1019, 1103, 1665, 2081, 2187, 2349]}, 'edge': {'target': [], 'time': []}}}","[34, -11, 3]","[273.09999999403954, 675.6999999880791, 2365]",1,[],23,"[None, None, None]","['', -34, 6, 3, -6, 34, -11, 6, 3, -34, 6, -3, -3]",364853,[],mouselab-mdp
3,28,"[3189, 3869, 4532]","['right', 'right', 'down']",training,"['0', '5', '6', '8']","{'click': {'state': {'target': ['5', '7', '8'], 'time': [638, 2153, 2724]}, 'edge': {'target': [], 'time': []}}, 'mouseover': {'state': {'target': ['5', '0', '6', '7', '7', '8'], 'time': [385, 986, 1638, 1768, 2010, 2584]}, 'edge': {'target': [], 'time': []}}, 'mouseout': {'state': {'target': ['5', '0', '6', '7', '7', '8', '8'], 'time': [887, 1036, 1718, 1802, 2317, 2950, 5254]}, 'edge': {'target': [], 'time': []}}}","[67, -11, 3]","[149.69999998807907, 1075.5, 3184.9000000059605]",1,[],56,"[None, None, None]","['', 67, 11, -3, 6, 67, -11, -3, 3, -67, -6, -6, -3]",370625,[],mouselab-mdp
3,29,"[2826, 3588, 4251]","['left', 'left', 'down']",training,"['0', '9', '10', '12']","{'click': {'state': {'target': ['5', '9', '1'], 'time': [1020, 1786, 2353]}, 'edge': {'target': [], 'time': []}}, 'mouseover': {'state': {'target': ['5', '9', '1'], 'time': [520, 1583, 2236]}, 'edge': {'target': [], 'time': []}}, 'mouseout': {'state': {'target': ['5', '9', '1', '9'], 'time': [1454, 1982, 2632, 5087]}, 'edge': {'target': [], 'time': []}}}","[34, 11, 3]","[128.19999998807907, 102.2000000178814, 2822.9000000059605]",1,[],45,"[None, None, None]","['', -67, 6, 3, 6, -67, -11, 6, -3, 34, 11, 3, 3]",376834,[],mouselab-mdp
3,30,"[1989, 2702, 3475]","['right', 'right', 'up']",training,"['0', '5', '6', '7']","{'click': {'state': {'target': ['5'], 'time': [1298]}, 'edge': {'target': [], 'time': []}}, 'mouseover': {'state': {'target': ['0', '5', '0', '9'], 'time': [288, 1009, 1572, 1688]}, 'edge': {'target': [], 'time': []}}, 'mouseout': {'state': {'target': ['0', '5', '0', '9', '0', '5', '5'], 'time': [877, 1521, 1622, 2155, 2351, 2588, 4560]}, 'edge': {'target': [], 'time': []}}}","[34, -6, 3]","[233.80000001192093, 94.69999998807907, 1987.2999999821186]",1,[],30,"[None, None, None]","['', 67, -6, 6, -6, 34, -6, 3, 3, 67, 6, 6, -3]",382657,[],mouselab-mdp
3,31,"[1744, 2457, 3175]","['right', 'right', 'up']",training,"['0', '5', '6', '7']","{'click': {'state': {'target': ['5'], 'time': [781]}, 'edge': {'target': [], 'time': []}}, 'mouseover': {'state': {'target': ['5'], 'time': [670]}, 'edge': {'target': [], 'time': []}}, 'mouseout': {'state': {'target': ['5'], 'time': [1146]}, 'edge': {'target': [], 'time': []}}}","[34, -6, -6]","[179.90000000596046, 242, 1741.7999999821186]",1,[],21,"[None, None, None]","['', -67, -11, 3, 6, 34, -6, -6, -6, 34, -11, -3, -3]",388193,[],mouselab-mdp
3,32,"[4227, 4942, 5554]","['right', 'right', 'down']",training,"['0', '5', '6', '8']","{'click': {'state': {'target': ['5'], 'time': [3618]}, 'edge': {'target': [], 'time': []}}, 'mouseover': {'state': {'target': ['5'], 'time': [3494]}, 'edge': {'target': [], 'time': []}}, 'mouseout': {'state': {'target': ['5'], 'time': [4060]}, 'edge': {'target': [], 'time': []}}}","[67, -6, -3]","[159.2999999821186, 198.80000001192093, 4223.800000011921]",1,[],57,"[None, None, None]","['', 67, -11, -3, -3, 67, -6, 3, -3, 67, -6, -6, 6]",393502,[],mouselab-mdp
3,33,"[1175, 1955, 2901]","['right', 'right', 'up']",training,"['0', '5', '6', '7']","{'click': {'state': {'target': [], 'time': []}, 'edge': {'target': [], 'time': []}}, 'mouseover': {'state': {'target': ['5'], 'time': [766]}, 'edge': {'target': [], 'time': []}}, 'mouseout': {'state': {'target': ['5'], 'time': [1778]}, 'edge': {'target': [], 'time': []}}}","[34, 11, 3]","[166.09999999403954, 71.80000001192093, 1171.5]",1,[],48,"[None, None, None]","['', 34, -11, -6, -3, 34, 11, 3, 6, -67, 6, 6, -6]",398335,[],mouselab-mdp
3,34,"[889, 1736, 2560]","['right', 'right', 'down']",training,"['0', '5', '6', '8']","{'click': {'state': {'target': [], 'time': []}, 'edge': {'target': [], 'time': []}}, 'mouseover': {'state': {'target': [], 'time': []}, 'edge': {'target': [], 'time': []}}, 'mouseout': {'state': {'target': [], 'time': []}, 'edge': {'target': [], 'time': []}}}","[-67, 11, 3]","[218.2999999821186, 399.90000000596046, 886.5999999940395]",1,[],-53,"[None, None, None]","['', 34, -6, -3, 6, -67, 11, 6, 3, -34, -11, 3, -6]",405487,[],mouselab-mdp
4,0,"[32647, 34822, 35869]","['left', 'left', 'up']",training,"['0', '9', '10', '11']","{'click': {'state': {'target': ['10', '6', '2', '1', '9', '5', '7', '8', '3', '4', '12', '11'], 'time': [5580, 6590, 7460, 11502, 12612, 13389, 19393, 20440, 22968, 24086, 25375, 26125]}, 'edge': {'target': [], 'time': []}}, 'mouseover': {'state': {'target': ['5', '1', '9', '10', '10', '9', '5', '6', '2', '1', '9', '0', '5', '5', '0', '0', '0', '7', '8', '0', '3', '3', '4', '12', '11'], 'time': [131, 1882, 2151, 2865, 3333, 5932, 6001, 6083, 7167, 11117, 12217, 12834, 12901, 13166, 13866, 14567, 15334, 17584, 20268, 20851, 21319, 22085, 23669, 25201, 25785]}, 'edge': {'target': [], 'time': []}}, 'mouseout': {'state': {'target': ['5', '1', '9', '10', '10', '9', '5', '6', '2', '1', '9', '0', '5', '5', '0', '9', '0', '5', '0', '1', '7', '6', '8', '0', '1', '2', '3', '3', '2', '4', '10', '12', '10', '11', '10', '9', '10', '9', '0'], 'time': [683, 1915, 2815, 3064, 5916, 5950, 6033, 6999, 7950, 11933, 12817, 12865, 12950, 13833, 13918, 14484, 14667, 15249, 15349, 15850, 19652, 20001, 20752, 20867, 20937, 20984, 21785, 23436, 23569, 24502, 24852, 25636, 25735, 26651, 27304, 28370, 28802, 28885, 37822]}, 'edge': {'target': [], 'time': []}}}","[15, -30, 30]","[77425, 15243.400000095367, 32645.400000095367]",2,0,3,"[None, None, None]","['', -30, 15, -30, -30, -15, 15, -30, -30, 15, -30, 30, 30]",77426,[],mouselab-mdp
4,1,"[8604, 9213, 9797]","['right', 'right', 'down']",training,"['0', '5', '6', '8']","{'click': {'state': {'target': ['2', '10', '6', '7', '8', '5'], 'time': [1891, 2745, 3664, 5144, 6073, 7592]}, 'edge': {'target': [], 'time': []}}, 'mouseover': {'state': {'target': ['0', '1', '2', '10', '10', '9', '5', '6', '6', '5', '0', '7', '8', '5'], 'time': [1179, 1229, 1547, 2281, 2548, 3081, 3147, 3196, 3533, 4079, 4215, 4931, 5530, 6947]}, 'edge': {'target': [], 'time': []}}, 'mouseout': {'state': {'target': ['0', '1', '2', '10', '10', '9', '5', '6', '6', '5', '0', '7', '6', '8', '5', '0'], 'time': [1215, 1314, 2180, 2381, 3064, 3097, 3163, 3249, 4065, 4113, 4230, 5465, 5515, 6548, 8032, 11133]}, 'edge': {'target': [], 'time': []}}}","[30, 30, 30]","[1684.2000000476837, 548.5, 8602.5]",2,3.08,84,"[None, None, None]","['', -15, -15, -30, -30, 30, 30, -15, 30, -15, -30, 30, 30]",92674,[],mouselab-mdp
4,2,"[13803, 14635, 15187]","['left', 'left', 'up']",training,"['0', '9', '10', '11']","{'click': {'state': {'target': ['2', '10', '6', '7', '8', '5', '9', '11'], 'time': [2641, 3402, 4262, 5471, 6183, 6936, 10012, 10818]}, 'edge': {'target': [], 'time': []}}, 'mouseover': {'state': {'target': ['9', '2', '2', '11', '10', '9', '5', '6', '6', '5', '7', '8', '5', '9', '9', '11', '12'], 'time': [1565, 1931, 2097, 3098, 3215, 3715, 3765, 3796, 4148, 4766, 5182, 5914, 6665, 8799, 9050, 10484, 11284]}, 'edge': {'target': [], 'time': []}}, 'mouseout': {'state': {'target': ['9', '2', '2', '11', '10', '9', '5', '6', '6', '5', '6', '7', '6', '8', '5', '9', '9', '11', '10', '12', '0'], 'time': [1714, 1999, 2932, 3180, 3698, 3730, 3781, 3949, 4682, 4933, 5116, 5832, 5900, 6532, 7451, 8848, 10416, 11133, 11233, 11350, 17568]}, 'edge': {'target': [], 'time': []}}}","[15, 30, 30]","[112.90000009536743, 79.90000009536743, 13802.200000047684]",2,[],67,"[None, None, None]","['', 30, 15, -30, -15, -30, 30, 15, -30, 15, 30, 30, 15]",131150,[],mouselab-mdp
4,3,"[14380, 15011, 15627]","['right', 'right', 'up']",training,"['0', '5', '6', '7']","{'click': {'state': {'target': ['2', '10', '6', '11', '7', '5'], 'time': [1367, 2124, 3190, 7828, 10851, 12227]}, 'edge': {'target': [], 'time': []}}, 'mouseover': {'state': {'target': ['8', '5', '2', '10', '0', '5', '6', '6', '5', '0', '9', '11', '9', '12', '0', '5', '7', '5', '0', '9', '0'], 'time': [555, 905, 1154, 1871, 2454, 2471, 2504, 2855, 3705, 3805, 3872, 6321, 8823, 9691, 9940, 9973, 10291, 11390, 12640, 13173, 13973]}, 'edge': {'target': [], 'time': []}}, 'mouseout': {'state': {'target': ['8', '5', '2', '10', '0', '5', '6', '6', '5', '0', '9', '11', '10', '9', '12', '0', '5', '6', '7', '5', '0', '9', '0', '5', '6'], 'time': [855, 920, 1688, 2422, 2470, 2487, 2538, 3672, 3771, 3821, 3887, 8291, 8440, 9590, 9890, 9955, 9988, 10023, 11290, 12589, 12773, 13956, 14007, 14040, 16340]}, 'edge': {'target': [], 'time': []}}}","[30, 15, 30]","[334.2999999523163, 52, 14377.5]",2,[],69,"[None, None, None]","['', -15, -30, -30, 15, 30, 15, 30, -15, 30, 15, 15, 15]",144548,[],mouselab-mdp
4,4,"[9438, 9989, 10533]","['left', 'left', 'up']",training,"['0', '9', '10', '11']","{'click': {'state': {'target': ['2', '10', '11', '9', '12'], 'time': [3202, 4031, 5431, 6447, 8569]}, 'edge': {'target': [], 'time': []}}, 'mouseover': {'state': {'target': ['3', '2', '1', '1', '2', '10', '9', '0', '0', '5', '5', '0', '9', '11', '9', '12'], 'time': [1035, 1370, 1669, 1936, 2070, 3770, 4402, 4520, 4552, 4586, 4903, 4935, 4968, 5252, 6037, 8238]}, 'edge': {'target': [], 'time': []}}, 'mouseout': {'state': {'target': ['3', '2', '1', '1', '2', '10', '9', '0', '0', '5', '5', '0', '9', '10', '11', '9', '12', '8'], 'time': [1084, 1651, 1719, 2019, 3653, 4369, 4470, 4535, 4568, 4687, 4934, 4952, 5002, 5153, 5836, 8103, 8853, 11520]}, 'edge': {'target': [], 'time': []}}}","[30, 30, 15]","[136.80000019073486, 119.20000004768372, 9435]",2,[],70,"[None, None, None]","['', -30, 15, 30, 30, -30, -15, 30, 30, 30, 30, 15, 15]",163021,[],mouselab-mdp
