pid,trial_index,action_time,actions,block,path,queries,reward,rt,condition,bonus,score,simulation_mode,state_rewards,time_elapsed,trialTime,trial_type
0,0,"[10291, 11871, 14416]","['up', 'up', 'left']",training,"['0', '1', '2', '4']","{'click': {'state': {'target': ['5'], 'time': [3821]}, 'edge': {'target': [], 'time': []}}, 'mouseover': {'state': {'target': ['8', '5', '1'], 'time': [2578, 3582, 5534]}, 'edge': {'target': [], 'time': []}}, 'mouseout': {'state': {'target': ['8', '5', '5'], 'time': [2632, 4264, 5317]}, 'edge': {'target': [], 'time': []}}}","[-20, 50, -50]","[112366.19999998808, 32095.29999999702, 10288.20000000298]",0,0,-21,"[None, None, None]","['', -20, 50, 100, -50, -1000, -50, 100, -50, -50, 100, 50, 100]",112462,[],mouselab-mdp
0,1,"[1310, 4318, 6873]","['left', 'left', 'up']",training,"['0', '9', '10', '11']","{'click': {'state': {'target': [], 'time': []}, 'edge': {'target': [], 'time': []}}, 'mouseover': {'state': {'target': ['1'], 'time': [None]}, 'edge': {'target': [], 'time': []}}, 'mouseout': {'state': {'target': [], 'time': []}, 'edge': {'target': [], 'time': []}}}","[100, -50, 50]","[1078.7000000029802, 2036.5, 1308.6000000089407]",0,5,100,"[None, None, None]","['', -50, 50, -50, -50, -50, 50, 50, -50, 100, -50, 50, -50]",144562,[],mouselab-mdp
0,2,"[20948, 21636, 22404]","['right', 'right', 'up']",training,"['0', '5', '6', '7']","{'click': {'state': {'target': ['1', '4', '2', '5', '6', '8', '7', '9', '10', '11', '12'], 'time': [3646, 6088, 7042, 9144, 9940, 10559, 11600, 14061, 15207, 15998, 16956]}, 'edge': {'target': [], 'time': []}}, 'mouseover': {'state': {'target': ['1', '2', '4', '2', '0', '5', '6', '6', '5', '6', '8', '7', '11', '9', '10', '10', '11', '12'], 'time': [None, 5544, 5893, 6962, 8013, 8130, 8430, 8881, 8998, 9815, 10363, 11501, 13536, 13936, 14670, 15101, 15721, 16505]}, 'edge': {'target': [], 'time': []}}, 'mouseout': {'state': {'target': ['1', '2', '4', '2', '1', '0', '5', '6', '6', '5', '6', '8', '6', '7', '11', '9', '10', '10', '11', '10', '12'], 'time': [5444, 5845, 6713, 7364, 7947, 8028, 8380, 8497, 8981, 9415, 10249, 11100, 11333, 13103, 13719, 14636, 14718, 15621, 16419, 16470, 17273]}, 'edge': {'target': [], 'time': []}}}","[50, -50, 50]","[2509.2999999970198, 2018.5999999940395, 20946.39999999106]",0,[],39,"[None, None, None]","['', 50, -50, -20, -50, 50, -50, 50, -20, -50, -1000, -50, 50]",162081,[],mouselab-mdp
0,3,"[3940, 5122, 6980]","['up', 'up', 'right']",training,"['0', '1', '2', '3']","{'click': {'state': {'target': [], 'time': []}, 'edge': {'target': [], 'time': []}}, 'mouseover': {'state': {'target': [], 'time': []}, 'edge': {'target': [], 'time': []}}, 'mouseout': {'state': {'target': [], 'time': []}, 'edge': {'target': [], 'time': []}}}","[-50, 50, -20]","[193.5, 274.29999999701977, 3938.3999999910593]",0,[],-20,"[None, None, None]","['', -50, 50, -20, -20, 50, 50, -50, 50, 50, -50, -50, -50]",171403,[],mouselab-mdp
0,4,"[926, 2110, 12271]","['left', 'left', 'up']",training,"['0', '9', '10', '11']","{'click': {'state': {'target': [], 'time': []}, 'edge': {'target': [], 'time': []}}, 'mouseover': {'state': {'target': [], 'time': []}, 'edge': {'target': [], 'time': []}}, 'mouseout': {'state': {'target': [], 'time': []}, 'edge': {'target': [], 'time': []}}}","[-50, -50, -50]","[682.2999999970198, 1355.9000000059605, 924.0999999940395]",0,[],-150,"[None, None, None]","['', 100, -50, 50, -20, 50, 100, 100, -50, -50, -50, -50, -50]",195883,[],mouselab-mdp
0,5,"[6030, 6764, 7531]","['right', 'right', 'down']",training,"['0', '5', '6', '8']","{'click': {'state': {'target': ['5', '6', '7', '8'], 'time': [2496, 3405, 4114, 5042]}, 'edge': {'target': [], 'time': []}}, 'mouseover': {'state': {'target': ['5', '6', '7', '8'], 'time': [2387, 3391, 3891, 5038]}, 'edge': {'target': [], 'time': []}}, 'mouseout': {'state': {'target': ['5', '6', '7', '6', '8'], 'time': [3174, 3824, 4575, 4842, 5326]}, 'edge': {'target': [], 'time': []}}}","[50, 100, 100]","[681.7999999970198, 9658.10000000894, 6028.29999999702]",0,[],246,"[None, None, None]","['', -20, 50, -50, -50, 50, 100, -50, 100, 50, 100, 50, -50]",205995,[],mouselab-mdp
0,6,"[4461, 5165, 6205]","['up', 'up', 'right']",training,"['0', '1', '2', '3']","{'click': {'state': {'target': ['1', '2', '4', '3'], 'time': [1325, 1964, 2630, 3391]}, 'edge': {'target': [], 'time': []}}, 'mouseover': {'state': {'target': ['6', '1', '2', '4', '3', '7'], 'time': [931, 1215, 1800, 2535, 3052, 3885]}, 'edge': {'target': [], 'time': []}}, 'mouseout': {'state': {'target': ['6', '1', '2', '4', '2', '3', '7'], 'time': [984, 1735, 2318, 2952, 3001, 3868, 3903]}, 'edge': {'target': [], 'time': []}}}","[50, 50, 50]","[193.20000000298023, 276.29999999701977, 4460.20000000298]",0,[],146,"[None, None, None]","['', 50, 50, 50, -1000, -20, 50, -50, 50, -1000, -1000, -1000, -50]",220716,[],mouselab-mdp
0,7,"[6523, 7290, 8043]","['left', 'left', 'up']",training,"['0', '9', '10', '11']","{'click': {'state': {'target': ['9', '10', '11', '12'], 'time': [2168, 2776, 3383, 3900]}, 'edge': {'target': [], 'time': []}}, 'mouseover': {'state': {'target': ['8', '0', '9', '10', '11', '12', '0', '0', '1'], 'time': [1778, 1843, 1895, 2561, 3194, 3711, 5212, 5346, 5548]}, 'edge': {'target': [], 'time': []}}, 'mouseout': {'state': {'target': ['8', '0', '9', '10', '11', '10', '12', '0', '0', '1', '5'], 'time': [1792, 1861, 2496, 3112, 3563, 3663, 4097, 5263, 5381, 6097, 9519]}, 'edge': {'target': [], 'time': []}}}","[100, -20, 100]","[206.8999999910593, 549.4000000059605, 6522]",0,[],176,"[None, None, None]","['', -20, 100, 50, -50, 100, -50, -50, 50, 100, -20, 100, -1000]",230104,[],mouselab-mdp
0,8,"[27532, 28296, 29065]","['right', 'right', 'down']",training,"['0', '5', '6', '8']","{'click': {'state': {'target': ['1', '2', '4', '3', '9', '10', '11', '12', '5', '6', '7', '8'], 'time': [1723, 2334, 3051, 3639, 9358, 21774, 22303, 23322, 24358, 24936, 25613, 26252]}, 'edge': {'target': [], 'time': []}}, 'mouseover': {'state': {'target': ['8', '5', '1', '2', '4', '4', '3', '7', '9', '5', '6', '11', '10', '11', '12', '5', '6', '7', '8'], 'time': [1070, 1284, 1552, 2152, 2671, 2820, 3355, 3887, 9281, 9945, 9963, 21423, 21624, 22141, 22922, 24243, 24743, 25527, 26043]}, 'edge': {'target': [], 'time': []}}, 'mouseout': {'state': {'target': ['8', '5', '1', '2', '4', '4', '2', '3', '7', '9', '9', '5', '6', '9', '11', '10', '11', '10', '12', '5', '6', '7', '6', '8'], 'time': [1103, 1320, 2104, 2638, 2702, 3255, 3322, 3822, 3903, 9762, 9911, 9962, 9976, 21139, 21590, 22088, 22506, 22689, 23727, 24676, 25275, 25879, 25975, 26478]}, 'edge': {'target': [], 'time': []}}}","[-20, 100, 100]","[274.20000000298023, 260.69999998807907, 27529.29999999702]",0,[],168,"[None, None, None]","['', 50, -20, -20, -50, -20, 100, -50, 100, 50, -20, -50, 50]",238199,[],mouselab-mdp
0,9,"[16207, 17438, 18350]","['left', 'left', 'down']",training,"['0', '9', '10', '12']","{'click': {'state': {'target': ['9', '10', '11', '12', '1', '2', '4', '3', '5', '6', '7', '8'], 'time': [2187, 2861, 3368, 3978, 4896, 5347, 5778, 6275, 10262, 11015, 11537, 12044]}, 'edge': {'target': [], 'time': []}}, 'mouseover': {'state': {'target': ['1', '0', '9', '10', '11', '12', '5', '1', '2', '4', '3', '7', '6', '5', '6', '7', '8'], 'time': [1605, 1870, 2104, 2652, 3186, 3822, 4523, 4639, 5173, 5522, 6024, 6992, 9889, 10040, 10723, 11388, 11841]}, 'edge': {'target': [], 'time': []}}, 'mouseout': {'state': {'target': ['1', '0', '9', '10', '11', '10', '12', '5', '1', '2', '4', '2', '3', '7', '6', '5', '6', '7', '6', '8'], 'time': [1620, 1887, 2605, 3138, 3589, 3706, 4221, 4554, 5090, 5505, 5939, 5992, 6875, 7006, 9954, 10571, 11324, 11672, 11807, 12206]}, 'edge': {'target': [], 'time': []}}}","[50, 50, -50]","[262.29999999701977, 264.09999999403954, 16160.79999999702]",0,[],38,"[None, None, None]","['', 50, -1000, 100, 50, -50, 50, -50, -1000, 50, 50, -50, -50]",248615,[],mouselab-mdp
0,10,"[10281, 10986, 11674]","['right', 'right', 'down']",training,"['0', '5', '6', '8']","{'click': {'state': {'target': ['5', '6', '8', '7', '1', '2', '4', '3', '12', '10', '11', '9'], 'time': [1719, 2219, 3562, 4112, 4826, 5364, 6023, 6720, 7852, 8319, 8765, 9239]}, 'edge': {'target': [], 'time': []}}, 'mouseover': {'state': {'target': ['5', '6', '7', '8', '7', '1', '2', '4', '4', '3', '12', '10', '11', '9'], 'time': [1642, 2075, 2957, 3510, 3877, 4695, 5128, 5528, 5910, 6396, 7731, 8232, 8583, 9032]}, 'edge': {'target': [], 'time': []}}, 'mouseout': {'state': {'target': ['5', '6', '7', '6', '8', '6', '7', '6', '5', '1', '2', '4', '4', '2', '3', '1', '12', '10', '11', '9'], 'time': [1992, 2473, 3193, 3427, 3742, 3811, 4376, 4478, 4562, 4960, 5494, 5579, 6177, 6227, 7262, 7311, 8013, 8515, 8947, 9432]}, 'edge': {'target': [], 'time': []}}}","[50, -20, 50]","[741.7999999970198, 420.5, 10279.800000011921]",0,[],68,"[None, None, None]","['', -1000, -20, -50, -50, 50, -20, -20, 50, -1000, -50, -1000, -20]",279642,[],mouselab-mdp
0,11,"[82873, 84184, 85032]","['left', 'left', 'up']",training,"['0', '9', '10', '11']","{'click': {'state': {'target': ['1', '2', '4', '3', '5', '6', '7', '8', '9', '10', '11', '12'], 'time': [69792, 70325, 70720, 71204, 72102, 72487, 72923, 73395, 74062, 74471, 74946, 75503]}, 'edge': {'target': [], 'time': []}}, 'mouseover': {'state': {'target': ['8', '1', '2', '4', '3', '5', '6', '7', '8', '9', '10', '11', '12', '0'], 'time': [602, 69616, 70234, 70585, 71139, 71987, 72368, 72804, 73255, 73922, 74467, 74737, 75457, 75940]}, 'edge': {'target': [], 'time': []}}, 'mouseout': {'state': {'target': ['8', '1', '2', '4', '2', '3', '5', '6', '7', '6', '8', '9', '10', '11', '10', '12', '9', '0', '5', '6'], 'time': [618, 70049, 70486, 70884, 70985, 71553, 72305, 72754, 73085, 73222, 73605, 74239, 74653, 75137, 75223, 75740, 75857, 76124, 76188, 76258]}, 'edge': {'target': [], 'time': []}}}","[50, 100, -50]","[199.29999999701977, 185.6000000089407, 82808.60000000894]",0,[],88,"[None, None, None]","['', 50, -50, 100, -50, 50, -50, 50, 100, 50, 100, -50, -50]",299924,[],mouselab-mdp
0,12,"[18213, 19013, 19701]","['left', 'left', 'down']",training,"['0', '9', '10', '12']","{'click': {'state': {'target': ['1', '2', '3', '4', '5', '6', '8', '7', '9', '10', '11', '12'], 'time': [9530, 10577, 11056, 11574, 12636, 13054, 13437, 13974, 14719, 15113, 15439, 16067]}, 'edge': {'target': [], 'time': []}}, 'mouseover': {'state': {'target': ['1', '2', '3', '4', '0', '5', '6', '8', '7', '0', '0', '9', '10', '11', '12'], 'time': [9420, 10504, 10974, 11391, 12325, 12475, 13026, 13326, 13876, 14310, 14444, 14611, 14925, 15378, 15745]}, 'edge': {'target': [], 'time': []}}, 'mouseout': {'state': {'target': ['1', '2', '3', '2', '4', '1', '0', '5', '6', '8', '6', '7', '0', '0', '9', '10', '11', '10', '12', '8', '8'], 'time': [9736, 10773, 11194, 11241, 11741, 11872, 12356, 12874, 13258, 13607, 13710, 14132, 14327, 14477, 14911, 15259, 15568, 15678, 16211, 16377, 20884]}, 'edge': {'target': [], 'time': []}}}","[-50, 50, 100]","[820.5, 346.1000000089407, 18211.79999999702]",0,[],88,"[None, None, None]","['', 50, -20, -50, 100, 50, 50, -50, -50, -50, 50, 50, 100]",313891,[],mouselab-mdp
0,13,"[14494, 15293, 15950]","['right', 'right', 'up']",training,"['0', '5', '6', '7']","{'click': {'state': {'target': ['1', '4', '2', '3', '5', '6', '8', '7', '9', '10', '11', '12'], 'time': [6464, 6943, 7292, 7632, 8297, 8658, 9374, 10023, 10975, 11399, 11702, 12926]}, 'edge': {'target': [], 'time': []}}, 'mouseover': {'state': {'target': ['0', '0', '1', '4', '2', '3', '5', '6', '8', '7', '7', '9', '10', '11', '12'], 'time': [6120, 6199, 6385, 6870, 7119, 7487, 8171, 8505, 9186, 9536, 9923, 10724, 11272, 11574, 12807]}, 'edge': {'target': [], 'time': []}}, 'mouseout': {'state': {'target': ['0', '0', '1', '4', '2', '3', '5', '6', '8', '6', '7', '7', '9', '10', '11', '10', '12'], 'time': [6149, 6268, 6669, 7068, 7435, 7871, 8453, 8871, 9503, 9520, 9570, 10273, 11140, 11522, 11857, 11958, 13090]}, 'edge': {'target': [], 'time': []}}}","[100, -50, 50]","[296.20000000298023, 183.40000000596046, 14492.70000000298]",0,[],88,"[None, None, None]","['', -50, 50, 50, -50, 100, -50, 50, 50, -50, -50, 50, -1000]",400657,[],mouselab-mdp
0,14,"[23599, 24623, 25374]","['right', 'right', 'down']",training,"['0', '5', '6', '8']","{'click': {'state': {'target': ['2', '1', '4', '3', '7', '6', '5', '8', '9', '10', '11', '12'], 'time': [16129, 16821, 17491, 18043, 18655, 19124, 19594, 20032, 20905, 21422, 21961, 22552]}, 'edge': {'target': [], 'time': []}}, 'mouseover': {'state': {'target': ['2', '1', '4', '3', '7', '6', '5', '8', '9', '10', '11', '12'], 'time': [15880, 16331, 17380, 17850, 18500, 18933, 19401, 19851, 20836, 21136, 21887, 22387]}, 'edge': {'target': [], 'time': []}}, 'mouseout': {'state': {'target': ['2', '1', '4', '2', '3', '7', '6', '5', '8', '9', '10', '11', '10', '12', '8'], 'time': [16263, 17066, 17700, 17781, 18267, 18851, 19335, 19768, 20235, 21086, 21670, 22118, 22321, 22721, 26592]}, 'edge': {'target': [], 'time': []}}}","[50, -50, 100]","[291.8999999910593, 151.6000000089407, 23558.19999998808]",0,[],88,"[None, None, None]","['', -50, 100, -20, -1000, 50, -50, 100, 100, -1000, -20, -50, -1000]",422306,[],mouselab-mdp
0,15,"[10871, 11478, 12214]","['up', 'up', 'right']",training,"['0', '1', '2', '3']","{'click': {'state': {'target': ['5', '6', '7', '8', '1', '4', '2', '3', '11', '10', '12', '9'], 'time': [1434, 1911, 2389, 2875, 3605, 4378, 5185, 5851, 8549, 8917, 9255, 9833]}, 'edge': {'target': [], 'time': []}}, 'mouseover': {'state': {'target': ['5', '6', '7', '8', '0', '1', '4', '2', '3', '11', '10', '12', '9'], 'time': [1247, 1715, 2165, 2732, 3266, 3400, 4184, 4983, 5502, 8488, 8821, 9239, 9720]}, 'edge': {'target': [], 'time': []}}, 'mouseout': {'state': {'target': ['5', '6', '7', '6', '8', '0', '1', '4', '2', '3', '7', '1', '11', '10', '12', '9', '8'], 'time': [1613, 2115, 2547, 2649, 3081, 3315, 4067, 4934, 5418, 6419, 7837, 7937, 8702, 9086, 9437, 10023, 10290]}, 'edge': {'target': [], 'time': []}}}","[100, 100, 100]","[530.2000000029802, 248.5, 10870.20000000298]",0,[],288,"[None, None, None]","['', 100, 100, 100, -20, -1000, -50, 100, -50, -20, 50, -50, -20]",439941,[],mouselab-mdp
0,16,"[10362, 11033, 11673]","['up', 'up', 'right']",training,"['0', '1', '2', '3']","{'click': {'state': {'target': ['9', '10', '12', '11', '4', '2', '1', '3', '5', '6', '8', '7'], 'time': [1948, 2533, 3109, 3657, 4358, 4762, 5241, 5652, 6323, 6705, 7052, 7496]}, 'edge': {'target': [], 'time': []}}, 'mouseover': {'state': {'target': ['12', '9', '10', '12', '11', '4', '2', '1', '3', '5', '6', '8', '7'], 'time': [1497, 1697, 2247, 2948, 3466, 4250, 4600, 5117, 5416, 6268, 6585, 7002, 7384]}, 'edge': {'target': [], 'time': []}}, 'mouseout': {'state': {'target': ['12', '9', '10', '12', '11', '4', '2', '1', '3', '5', '6', '8', '6', '7'], 'time': [1547, 2198, 2798, 3380, 3900, 4531, 4950, 5382, 5868, 6501, 6903, 7217, 7303, 7723]}, 'edge': {'target': [], 'time': []}}}","[-20, -50, 50]","[101.29999999701977, 236.59999999403954, 10360.5]",0,[],-32,"[None, None, None]","['', -20, -50, 50, 50, -20, -20, -50, -50, -1000, -50, -20, 50]",467450,[],mouselab-mdp
0,17,"[8405, 9044, 9668]","['up', 'up', 'right']",training,"['0', '1', '2', '3']","{'click': {'state': {'target': ['5', '6', '8', '7', '1', '2', '4', '3', '9', '10', '11', '12'], 'time': [1346, 1807, 2569, 3195, 3728, 4149, 4660, 5151, 6321, 6648, 6974, 7437]}, 'edge': {'target': [], 'time': []}}, 'mouseover': {'state': {'target': ['5', '6', '8', '7', '1', '2', '4', '4', '3', '0', '0', '9', '10', '11', '12'], 'time': [1212, 1628, 2559, 3152, 3586, 3970, 4351, 4570, 4918, 5571, 5688, 6169, 6506, 6856, 7405]}, 'edge': {'target': [], 'time': []}}, 'mouseout': {'state': {'target': ['5', '6', '8', '6', '7', '1', '2', '4', '4', '2', '3', '0', '0', '8', '9', '10', '11', '10', '12'], 'time': [1527, 2442, 2776, 2862, 3383, 3884, 4320, 4384, 4819, 4887, 5319, 5586, 5705, 5955, 6453, 6787, 7204, 7306, 7588]}, 'edge': {'target': [], 'time': []}}}","[50, 100, 50]","[174.1000000089407, 147.5, 8362]",0,[],188,"[None, None, None]","['', 50, 100, 50, -20, -1000, 100, 50, -50, -50, 100, -50, 50]",481818,[],mouselab-mdp
0,18,"[10273, 12945, 13921]","['left', 'left', 'down']",training,"['0', '9', '10', '12']","{'click': {'state': {'target': ['1', '2', '4', '3', '5', '6', '7', '8', '10', '9', '11', '12'], 'time': [1280, 1781, 2262, 2731, 3223, 3902, 4507, 5407, 6343, 6715, 7730, 8167]}, 'edge': {'target': [], 'time': []}}, 'mouseover': {'state': {'target': ['0', '0', '1', '2', '4', '3', '5', '6', '7', '8', '9', '10', '9', '11', '11', '12'], 'time': [879, 1026, 1159, 1646, 2096, 2479, 3147, 3512, 4296, 5164, 6033, 6233, 6617, 7350, 7635, 8035]}, 'edge': {'target': [], 'time': []}}, 'mouseout': {'state': {'target': ['0', '0', '1', '2', '4', '2', '3', '5', '6', '7', '6', '8', '9', '10', '9', '11', '10', '11', '10', '12'], 'time': [944, 1043, 1546, 2029, 2411, 2445, 2896, 3446, 4181, 4850, 4982, 5814, 6065, 6550, 6851, 7385, 7533, 7849, 7934, 8317]}, 'edge': {'target': [], 'time': []}}}","[50, 50, -50]","[132.1000000089407, 122.8999999910593, 10272.09999999404]",0,[],38,"[None, None, None]","['', -20, 50, -50, -50, -20, 50, -1000, 50, 50, 50, -20, -50]",500029,[],mouselab-mdp
0,19,"[9897, 10555, 11355]","['right', 'right', 'up']",training,"['0', '5', '6', '7']","{'click': {'state': {'target': ['5', '6', '8', '7', '1', '2', '4', '3', '11', '10', '12', '9'], 'time': [1862, 2339, 2825, 3435, 5076, 5591, 6005, 6767, 7447, 7837, 8223, 8728]}, 'edge': {'target': [], 'time': []}}, 'mouseover': {'state': {'target': ['6', '5', '6', '8', '7', '1', '2', '4', '3', '3', '11', '10', '12', '9'], 'time': [1606, 1705, 2189, 2673, 3223, 5009, 5526, 5807, 6226, 6610, 7361, 7678, 8144, 8629]}, 'edge': {'target': [], 'time': []}}, 'mouseout': {'state': {'target': ['6', '5', '6', '8', '7', '1', '2', '4', '2', '3', '3', '11', '10', '12', '9'], 'time': [1671, 2156, 2623, 3055, 3691, 5359, 5773, 6175, 6210, 6243, 6925, 7593, 8011, 8377, 8894]}, 'edge': {'target': [], 'time': []}}}","[100, 50, 100]","[2170.4000000059605, 476.40000000596046, 9895.79999999702]",0,[],238,"[None, None, None]","['', 50, -50, -50, -50, 100, 50, 100, -20, 100, -20, 50, -50]",512100,[],mouselab-mdp
0,20,"[8632, 9271, 9896]","['up', 'up', 'right']",training,"['0', '1', '2', '3']","{'click': {'state': {'target': ['1', '2', '4', '3', '8', '6', '5', '7', '9', '10', '11', '12'], 'time': [1373, 1838, 2300, 2859, 4468, 4818, 5347, 5835, 6426, 6821, 7174, 7612]}, 'edge': {'target': [], 'time': []}}, 'mouseover': {'state': {'target': ['5', '1', '2', '4', '3', '6', '8', '6', '5', '7', '9', '10', '11', '12'], 'time': [1059, 1242, 1742, 2142, 2810, 3410, 4328, 4645, 5176, 5813, 6263, 6613, 7047, 7447]}, 'edge': {'target': [], 'time': []}}, 'mouseout': {'state': {'target': ['5', '1', '2', '4', '2', '3', '6', '8', '6', '5', '7', '5', '9', '10', '11', '10', '12'], 'time': [1140, 1576, 2110, 2442, 2493, 3260, 3460, 4609, 5012, 5511, 5978, 6130, 6561, 6978, 7297, 7397, 7780]}, 'edge': {'target': [], 'time': []}}}","[50, 50, 100]","[155.09999999403954, 303.90000000596046, 8630.40000000596]",0,[],188,"[None, None, None]","['', 50, 50, 100, 100, -50, 100, 50, -50, -20, -20, -20, -50]",527714,[],mouselab-mdp
0,21,"[8090, 8776, 9498]","['up', 'up', 'left']",training,"['0', '1', '2', '4']","{'click': {'state': {'target': ['5', '6', '7', '8', '1', '4', '2', '3'], 'time': [3785, 4172, 4570, 4983, 5513, 6342, 6692, 7136]}, 'edge': {'target': [], 'time': []}}, 'mouseover': {'state': {'target': ['8', '5', '6', '7', '8', '1', '4', '2', '3'], 'time': [3260, 3643, 4043, 4510, 4861, 5344, 6212, 6562, 7013]}, 'edge': {'target': [], 'time': []}}, 'mouseout': {'state': {'target': ['8', '5', '6', '7', '6', '8', '5', '1', '4', '2', '3', '8'], 'time': [3309, 3958, 4377, 4708, 4812, 5142, 5243, 5644, 6511, 6896, 7430, 10904]}, 'edge': {'target': [], 'time': []}}}","[50, 50, 100]","[135.20000000298023, 126.20000000298023, 8087.899999991059]",0,[],192,"[None, None, None]","['', 50, 50, 50, 100, 100, -20, 50, -1000, -50, -50, -20, -50]",540754,[],mouselab-mdp
0,22,"[8789, 9511, 10182]","['left', 'left', 'down']",training,"['0', '9', '10', '12']","{'click': {'state': {'target': ['9', '10', '11', '12', '4', '3', '2', '1', '5', '6', '7', '8'], 'time': [1294, 1735, 2339, 3121, 3829, 4747, 5159, 5575, 5979, 6363, 6687, 7129]}, 'edge': {'target': [], 'time': []}}, 'mouseover': {'state': {'target': ['9', '10', '11', '11', '12', '4', '2', '3', '2', '1', '5', '6', '7', '8'], 'time': [1133, 1566, 1966, 2221, 2918, 3585, 4318, 4653, 4984, 5437, 5821, 6252, 6519, 7105]}, 'edge': {'target': [], 'time': []}}, 'mouseout': {'state': {'target': ['9', '10', '11', '11', '10', '12', '9', '4', '2', '3', '2', '1', '5', '6', '7', '6', '8'], 'time': [1500, 1917, 2000, 2464, 2634, 3301, 3402, 4035, 4402, 4884, 5353, 5736, 6152, 6503, 6853, 6955, 7287]}, 'edge': {'target': [], 'time': []}}}","[50, 100, -20]","[192.19999998807907, 229.3999999910593, 8787.29999999702]",0,[],118,"[None, None, None]","['', 50, -50, 50, -20, -20, -50, 50, -50, 50, 100, -20, -20]",552402,[],mouselab-mdp
0,23,"[8928, 9554, 10242]","['right', 'right', 'up']",training,"['0', '5', '6', '7']","{'click': {'state': {'target': ['1', '2', '4', '3', '5', '6', '7', '8', '10', '9', '11', '12'], 'time': [1351, 1760, 2154, 2744, 3229, 3568, 3892, 4342, 5139, 5416, 5894, 6648]}, 'edge': {'target': [], 'time': []}}, 'mouseover': {'state': {'target': ['0', '1', '2', '4', '3', '5', '6', '7', '8', '10', '9', '11', '12', '12'], 'time': [943, 1290, 1659, 1976, 2410, 3061, 3478, 3726, 4159, 4977, 5278, 5680, 6128, 6480]}, 'edge': {'target': [], 'time': []}}, 'mouseout': {'state': {'target': ['0', '1', '2', '4', '2', '3', '5', '6', '7', '6', '8', '10', '9', '11', '10', '12', '12'], 'time': [1042, 1526, 1959, 2325, 2377, 2927, 3395, 3691, 4060, 4145, 4529, 5251, 5561, 6045, 6097, 6214, 6796]}, 'edge': {'target': [], 'time': []}}}","[-20, -20, 100]","[217.3999999910593, 171.5, 8927.199999988079]",0,[],48,"[None, None, None]","['', -20, -50, -50, -20, -20, -20, 100, -50, 50, -50, -50, -20]",564442,[],mouselab-mdp
0,24,"[14034, 14690, 15440]","['left', 'left', 'up']",training,"['0', '9', '10', '11']","{'click': {'state': {'target': ['1', '2', '4', '3', '5', '6', '7', '8', '9', '11', '10', '12'], 'time': [6709, 7076, 7991, 8577, 9198, 9547, 9907, 10390, 11158, 12330, 12670, 13066]}, 'edge': {'target': [], 'time': []}}, 'mouseover': {'state': {'target': ['7', '1', '2', '4', '4', '3', '5', '6', '7', '8', '0', '9', '10', '10', '11', '10', '12'], 'time': [6018, 6521, 6971, 7222, 7762, 8285, 9175, 9404, 9822, 10373, 10840, 11142, 11441, 11739, 12225, 12543, 12976]}, 'edge': {'target': [], 'time': []}}, 'mouseout': {'state': {'target': ['7', '1', '2', '4', '4', '2', '3', '5', '6', '7', '6', '8', '0', '9', '10', '10', '11', '10', '12'], 'time': [6052, 6886, 7220, 7268, 8135, 8222, 8789, 9353, 9756, 10087, 10237, 10555, 10940, 11374, 11507, 11824, 12490, 12840, 13207]}, 'edge': {'target': [], 'time': []}}}","[50, 100, 100]","[137.20000000298023, 189.70000000298023, 14032.40000000596]",0,[],238,"[None, None, None]","['', 50, -50, 50, 100, -20, -50, -50, 100, 50, 100, 100, 100]",576506,[],mouselab-mdp
0,25,"[13638, 14340, 15892]","['left', 'left', 'up']",training,"['0', '9', '10', '11']","{'click': {'state': {'target': ['9', '10', '11', '12', '1', '2', '4', '3', '5', '6', '7', '8'], 'time': [1399, 2204, 2546, 3360, 4002, 4434, 4850, 5396, 5980, 6386, 6768, 7657]}, 'edge': {'target': [], 'time': []}}, 'mouseover': {'state': {'target': ['9', '10', '10', '11', '12', '12', '1', '2', '4', '3', '5', '6', '7', '8'], 'time': [1309, 1742, 2076, 2391, 2810, 3176, 3895, 4212, 4645, 5179, 5913, 6364, 6598, 7481]}, 'edge': {'target': [], 'time': []}}, 'mouseout': {'state': {'target': ['9', '10', '10', '11', '10', '12', '12', '1', '2', '4', '2', '3', '5', '6', '7', '6', '8'], 'time': [1676, 1776, 2359, 2691, 2778, 2894, 3509, 4143, 4593, 4994, 5096, 5661, 6164, 6545, 6929, 7065, 7847]}, 'edge': {'target': [], 'time': []}}}","[100, -50, -20]","[160.30000001192093, 242.20000000298023, 13636.60000000894]",0,[],18,"[None, None, None]","['', 50, -1000, -20, -1000, -20, -20, 50, 50, 100, -50, -20, -50]",589130,[],mouselab-mdp
0,26,"[15692, 16507, 17211]","['left', 'left', 'up']",training,"['0', '9', '10', '11']","{'click': {'state': {'target': ['1', '2', '4', '3', '5', '6', '7', '8', '9', '10', '11', '12'], 'time': [789, 1215, 1666, 2147, 2652, 3021, 3347, 3866, 4424, 4786, 5190, 5603]}, 'edge': {'target': [], 'time': []}}, 'mouseover': {'state': {'target': ['1', '2', '4', '3', '5', '6', '7', '8', '9', '10', '11', '12'], 'time': [691, 1008, 1511, 1910, 2510, 2826, 3196, 3663, 4330, 4596, 5031, 5396]}, 'edge': {'target': [], 'time': []}}, 'mouseout': {'state': {'target': ['1', '2', '4', '2', '3', '5', '6', '7', '6', '8', '9', '10', '11', '10', '12', '8'], 'time': [958, 1375, 1810, 1878, 2310, 2773, 3160, 3495, 3613, 4013, 4561, 4981, 5329, 5382, 5765, 18177]}, 'edge': {'target': [], 'time': []}}}","[100, -20, 50]","[202.59999999403954, 1049.9000000059605, 15689.20000000298]",0,[],118,"[None, None, None]","['', -50, 50, -1000, 100, -50, -20, -50, -1000, 100, -20, 50, 50]",606857,[],mouselab-mdp
0,27,"[9392, 10046, 10751]","['up', 'up', 'right']",training,"['0', '1', '2', '3']","{'click': {'state': {'target': ['5', '7', '6', '8', '1', '2', '4', '3', '9', '10', '11', '12'], 'time': [1428, 2392, 2786, 3213, 3989, 4356, 4868, 5580, 6634, 7056, 7441, 7922]}, 'edge': {'target': [], 'time': []}}, 'mouseover': {'state': {'target': ['0', '5', '6', '7', '6', '8', '1', '2', '4', '3', '0', '9', '10', '11', '12'], 'time': [1034, 1331, 1999, 2118, 2716, 3169, 3817, 4170, 4771, 5187, 6072, 6123, 6973, 7306, 7918]}, 'edge': {'target': [], 'time': []}}, 'mouseout': {'state': {'target': ['0', '5', '6', '7', '6', '8', '5', '1', '2', '4', '2', '3', '0', '9', '10', '11', '10', '12'], 'time': [1048, 1617, 2032, 2551, 3052, 3653, 3750, 4118, 4537, 5019, 5121, 5889, 6089, 6823, 7221, 7588, 7722, 8105]}, 'edge': {'target': [], 'time': []}}}","[50, 50, 100]","[308.8999999910593, 198.09999999403954, 9390.10000000894]",0,[],188,"[None, None, None]","['', 50, 50, 100, 50, 100, -50, 100, -50, -50, 50, 100, -20]",630624,[],mouselab-mdp
0,28,"[92712, 93442, 94052]","['up', 'up', 'left']",training,"['0', '1', '2', '4']","{'click': {'state': {'target': ['1', '2', '4', '3', '5', '6', '7', '8', '9', '10', '11', '12'], 'time': [85086, 85552, 85965, 86427, 86904, 87266, 87592, 88356, 89038, 89465, 89992, 90534]}, 'edge': {'target': [], 'time': []}}, 'mouseover': {'state': {'target': ['0', '1', '2', '4', '3', '5', '6', '7', '8', '0', '9', '10', '11', '12'], 'time': [84756, 85021, 85421, 85769, 86186, 86739, 87104, 87471, 88040, 88675, 88906, 89392, 89726, 90393]}, 'edge': {'target': [], 'time': []}}, 'mouseout': {'state': {'target': ['0', '1', '2', '4', '2', '3', '5', '6', '7', '6', '8', '0', '9', '10', '11', '10', '12', '1', '1', '1', '0'], 'time': [84768, 85321, 85738, 86104, 86138, 86622, 87073, 87421, 87754, 87822, 88541, 88856, 89207, 89659, 90173, 90290, 90760, 91258, 91862, 92161, 95014]}, 'edge': {'target': [], 'time': []}}}","[-20, 100, 100]","[150.69999998807907, 209.5, 92631.60000000894]",0,[],168,"[None, None, None]","['', -20, 100, 50, 100, -50, -20, -50, -20, -20, 100, -50, -50]",649841,[],mouselab-mdp
0,29,"[8959, 9822, 10623]","['up', 'up', 'right']",training,"['0', '1', '2', '3']","{'click': {'state': {'target': ['9', '10', '11', '1', '2', '4', '3', '5', '6', '7', '8', '12'], 'time': [1351, 1887, 2597, 3333, 3793, 4187, 4719, 5308, 5709, 6057, 6535, 7245]}, 'edge': {'target': [], 'time': []}}, 'mouseover': {'state': {'target': ['9', '10', '11', '1', '2', '4', '3', '5', '6', '7', '8', '12'], 'time': [1270, 1717, 2504, 3221, 3702, 4089, 4606, 5256, 5556, 5889, 6357, 7056]}, 'edge': {'target': [], 'time': []}}, 'mouseout': {'state': {'target': ['9', '10', '11', '10', '1', '2', '4', '2', '3', '5', '6', '7', '6', '8', '12'], 'time': [1601, 2420, 2769, 2904, 3623, 3970, 4356, 4439, 4957, 5504, 5855, 6205, 6308, 6741, 7406]}, 'edge': {'target': [], 'time': []}}}","[50, -20, -50]","[230.29999999701977, 102.29999999701977, 8957.70000000298]",0,[],-32,"[None, None, None]","['', 50, -20, -50, -50, -20, -50, -1000, -20, -1000, 50, 50, 100]",663169,[],mouselab-mdp
0,30,"[8299, 8923, 9755]","['up', 'up', 'right']",training,"['0', '1', '2', '3']","{'click': {'state': {'target': ['9', '10', '11', '12', '5', '6', '8', '7', '1', '2', '4', '3'], 'time': [1741, 2219, 2568, 3045, 3827, 4186, 4503, 5096, 5635, 6007, 6411, 6923]}, 'edge': {'target': [], 'time': []}}, 'mouseover': {'state': {'target': ['5', '0', '9', '10', '11', '12', '5', '6', '8', '7', '1', '2', '4', '3'], 'time': [1176, 1506, 1556, 2143, 2507, 2927, 3661, 4062, 4412, 4996, 5480, 5863, 6211, 6645]}, 'edge': {'target': [], 'time': []}}, 'mouseout': {'state': {'target': ['5', '0', '9', '10', '11', '10', '12', '5', '6', '8', '6', '7', '1', '2', '4', '2', '3', '5', '8'], 'time': [1490, 1523, 1907, 2393, 2691, 2810, 3211, 3976, 4310, 4660, 4762, 5244, 5795, 6194, 6546, 6597, 7148, 7231, 7614]}, 'edge': {'target': [], 'time': []}}}","[100, 50, 100]","[360.70000000298023, 308.09999999403954, 8297.59999999404]",0,[],238,"[None, None, None]","['', 100, 50, 100, -20, -20, 100, 50, -20, 50, 100, -1000, 50]",759727,[],mouselab-mdp
0,31,"[81909, 82419, 83105]","['right', 'right', 'down']",training,"['0', '5', '6', '8']","{'click': {'state': {'target': ['9', '10', '11', '12', '1', '2', '4', '3', '5', '6', '7', '8'], 'time': [75721, 76067, 76560, 77146, 77828, 78223, 78778, 79363, 79788, 80104, 80428, 80942]}, 'edge': {'target': [], 'time': []}}, 'mouseover': {'state': {'target': ['9', '10', '11', '12', '1', '2', '4', '3', '5', '6', '7', '8'], 'time': [75717, 75916, 76350, 76969, 77768, 78085, 78652, 79289, 79639, 79973, 80306, 80740]}, 'edge': {'target': [], 'time': []}}, 'mouseout': {'state': {'target': ['9', '10', '11', '10', '12', '9', '1', '2', '4', '2', '3', '5', '6', '7', '6', '8'], 'time': [75731, 76236, 76750, 76870, 77285, 77453, 78018, 78352, 78935, 79005, 79519, 79920, 80254, 80571, 80656, 81072]}, 'edge': {'target': [], 'time': []}}}","[50, 50, -50]","[119.5, 335.5, 81834.5]",0,[],38,"[None, None, None]","['', -50, -1000, -20, 50, 50, 50, -1000, -50, -1000, -20, -1000, 100]",772109,[],mouselab-mdp
0,32,"[7936, 8559, 9264]","['up', 'up', 'right']",training,"['0', '1', '2', '3']","{'click': {'state': {'target': ['5', '6', '7', '8', '1', '2', '4', '3', '9', '10', '11', '12'], 'time': [1073, 1427, 2352, 2830, 3578, 3905, 4244, 4826, 5450, 5876, 6221, 6671]}, 'edge': {'target': [], 'time': []}}, 'mouseover': {'state': {'target': ['5', '6', '7', '8', '1', '2', '4', '3', '9', '10', '11', '12'], 'time': [963, 1243, 2246, 2696, 3479, 3814, 4098, 4799, 5215, 5816, 6083, 6514]}, 'edge': {'target': [], 'time': []}}, 'mouseout': {'state': {'target': ['5', '6', '6', '7', '6', '8', '1', '2', '4', '2', '3', '1', '9', '10', '11', '10', '12'], 'time': [1226, 1577, 2163, 2478, 2613, 3013, 3712, 4046, 4380, 4465, 5049, 5116, 5581, 6031, 6365, 6467, 6815]}, 'edge': {'target': [], 'time': []}}}","[100, 50, 50]","[5.299999997019768, 176.8999999910593, 7933.9000000059605]",0,[],188,"[None, None, None]","['', 100, 50, 50, 50, 100, 50, -20, 50, 50, -1000, 50, 50]",784957,[],mouselab-mdp
0,33,"[11028, 12003, 12789]","['right', 'right', 'down']",training,"['0', '5', '6', '8']","{'click': {'state': {'target': ['5', '6', '7', '8', '1', '2', '4', '3', '11', '10', '12', '9'], 'time': [1029, 1397, 1739, 2325, 2951, 3261, 3705, 4387, 4942, 5295, 5643, 6070]}, 'edge': {'target': [], 'time': []}}, 'mouseover': {'state': {'target': ['5', '6', '7', '8', '1', '2', '4', '3', '3', '11', '10', '12', '9'], 'time': [867, 1184, 1634, 2235, 2835, 3169, 3469, 3901, 4254, 4771, 5221, 5605, 5873]}, 'edge': {'target': [], 'time': []}}, 'mouseout': {'state': {'target': ['5', '6', '7', '6', '8', '5', '1', '2', '4', '2', '3', '3', '2', '11', '10', '12', '9'], 'time': [1167, 1534, 1916, 2052, 2635, 2702, 3100, 3418, 3835, 3870, 3934, 4535, 4587, 5136, 5470, 5804, 6256]}, 'edge': {'target': [], 'time': []}}}","[50, -50, -20]","[124.90000000596046, 207.79999999701977, 11026.5]",0,[],-32,"[None, None, None]","['', -50, -1000, 50, 100, 50, -50, -50, -20, -50, -20, 50, -50]",870164,[],mouselab-mdp
0,34,"[8801, 9504, 10193]","['left', 'left', 'down']",training,"['0', '9', '10', '12']","{'click': {'state': {'target': ['1', '2', '4', '11', '10', '12', '9', '3', '5', '6', '7', '8'], 'time': [1384, 1731, 2097, 3350, 3735, 4058, 4698, 5410, 6030, 6453, 6808, 7282]}, 'edge': {'target': [], 'time': []}}, 'mouseover': {'state': {'target': ['0', '0', '5', '1', '2', '4', '10', '11', '10', '12', '9', '3', '5', '6', '7', '8'], 'time': [689, 920, 1036, 1237, 1587, 1905, 2791, 3325, 3575, 3973, 4576, 5258, 5894, 6327, 6661, 7195]}, 'edge': {'target': [], 'time': []}}, 'mouseout': {'state': {'target': ['0', '0', '5', '1', '2', '4', '2', '10', '11', '10', '12', '9', '1', '3', '5', '6', '7', '6', '8'], 'time': [721, 936, 1120, 1537, 1888, 2223, 2307, 2808, 3490, 3892, 4242, 4943, 5143, 5628, 6261, 6611, 6959, 7062, 7527]}, 'edge': {'target': [], 'time': []}}}","[50, -20, 50]","[476.6000000089407, 290.90000000596046, 8799.29999999702]",0,[],68,"[None, None, None]","['', 100, -1000, 100, -1000, -1000, 100, 50, -20, 50, -20, -50, 50]",881892,[],mouselab-mdp
1,0,"[34680, 40654, 41998]","['up', 'up', 'right']",training,"['0', '1', '2', '3']","{'click': {'state': {'target': ['5', '6', '8', '9', '1', '2', '4', '10', '11', '3', '7', '12'], 'time': [7325, 8669, 10015, 15971, 17155, 18050, 18956, 21608, 22519, 25273, 26391, 28835]}, 'edge': {'target': [], 'time': []}}, 'mouseover': {'state': {'target': ['0', '5', '6', '8', '0', '9', '1', '2', '4', '10', '11', '3', '7', '0', '12'], 'time': [5521, 6468, 8201, 9601, 15201, 15584, 16567, 17550, 18502, 20967, 21950, 24685, 26068, 26784, 28283]}, 'edge': {'target': [], 'time': []}}, 'mouseout': {'state': {'target': ['0', '5', '6', '8', '5', '0', '9', '1', '2', '4', '10', '11', '1', '3', '7', '0', '12'], 'time': [6434, 7985, 9351, 11185, 14039, 15234, 16517, 17485, 18434, 20600, 21934, 23367, 24552, 25750, 26734, 28101, 29800]}, 'edge': {'target': [], 'time': []}}}","[100, 50, 50]","[150991.20000000298, 26493.79999999702, 54369]",0,0,188,"[None, None, None]","['', 100, 50, 50, 50, 100, 50, -20, 50, 50, -1000, 50, 50]",150998,[],mouselab-mdp
1,1,"[15394, 16092, 17164]","['up', 'up', 'left']",training,"['0', '1', '2', '4']","{'click': {'state': {'target': ['9', '5', '1'], 'time': [8980, 11222, 12816]}, 'edge': {'target': [], 'time': []}}, 'mouseover': {'state': {'target': ['0', '9', '5', '1'], 'time': [6966, 8549, 10366, 12449]}, 'edge': {'target': [], 'time': []}}, 'mouseout': {'state': {'target': ['0', '9', '5', '1'], 'time': [8515, 10049, 12132, 19415]}, 'edge': {'target': [], 'time': []}}}","[50, 50, -1000]","[40691.40000000596, 75747.19999998808, 24171.90000000596]",0,5,-903,"[None, None, None]","['', 50, 50, 50, -1000, -20, 50, -50, 50, -1000, -1000, -1000, -50]",177497,[],mouselab-mdp
1,2,"[23115, 24004, 24645]","['left', 'left', 'down']",training,"['0', '9', '10', '12']","{'click': {'state': {'target': ['5', '9', '10', '11', '6', '7', '1', '2', '4'], 'time': [4106, 5390, 6896, 8174, 11474, 13422, 15625, 16595, 17938]}, 'edge': {'target': [], 'time': []}}, 'mouseover': {'state': {'target': ['0', '5', '0', '9', '10', '11', '1', '6', '7', '1', '2', '4'], 'time': [1673, 3740, 4723, 4773, 6473, 7639, 10273, 10673, 12823, 15156, 16223, 17589]}, 'edge': {'target': [], 'time': []}}, 'mouseout': {'state': {'target': ['0', '5', '0', '9', '10', '11', '1', '6', '7', '1', '2', '4', '5'], 'time': [3456, 4706, 4756, 6406, 7606, 10239, 10289, 12772, 14991, 16189, 17539, 18606, 26475]}, 'edge': {'target': [], 'time': []}}}","[50, 50, -50]","[8191.600000008941, 13165.199999988079, 18233.10000000894]",0,[],41,"[None, None, None]","['', -50, 50, 50, -50, 50, -20, 50, 50, 50, 50, -50, -50]",237255,[],mouselab-mdp
1,3,"[20178, 21034, 22804]","['right', 'right', 'up']",training,"['0', '5', '6', '7']","{'click': {'state': {'target': ['1', '9', '5', '10', '11', '6', '2', '4', '8', '12', '7'], 'time': [2317, 3723, 4653, 6028, 7946, 9814, 11562, 12531, 15397, 16762, 17990]}, 'edge': {'target': [], 'time': []}}, 'mouseover': {'state': {'target': ['0', '0', '1', '9', '5', '10', '11', '11', '6', '7', '2', '4', '0', '0', '8', '12', '7'], 'time': [1308, 1924, 1991, 3125, 4108, 5441, 6857, 7607, 9441, 10407, 10924, 12191, 13374, 13641, 14841, 16407, 17508]}, 'edge': {'target': [], 'time': []}}, 'mouseout': {'state': {'target': ['0', '0', '1', '9', '5', '9', '10', '11', '11', '1', '6', '7', '2', '4', '0', '0', '8', '12', '7'], 'time': [1608, 1941, 2774, 4024, 5358, 5424, 6824, 6907, 9091, 9141, 10308, 10474, 12140, 13291, 13608, 14791, 16007, 17157, 18891]}, 'edge': {'target': [], 'time': []}}}","[-20, -20, 100]","[29350.70000000298, 18305.29999999702, 18976.29999999702]",0,[],49,"[None, None, None]","['', -20, -50, -50, -20, -20, -20, 100, -50, 50, -50, -50, -20]",277950,[],mouselab-mdp
1,4,"[11741, 12557, 13309]","['up', 'up', 'right']",training,"['0', '1', '2', '3']","{'click': {'state': {'target': ['5', '9', '1', '2', '4', '3'], 'time': [1852, 3050, 4159, 5490, 6276, 10198]}, 'edge': {'target': [], 'time': []}}, 'mouseover': {'state': {'target': ['0', '5', '0', '9', '1', '2', '4', '0', '3', '0'], 'time': [1188, 1504, 2304, 2437, 3637, 5104, 5937, 9404, 9803, 10720]}, 'edge': {'target': [], 'time': []}}, 'mouseout': {'state': {'target': ['0', '5', '0', '9', '1', '2', '4', '9', '0', '3', '0'], 'time': [1446, 2270, 2337, 3587, 5071, 5887, 8187, 8337, 9425, 10653, 10740]}, 'edge': {'target': [], 'time': []}}}","[50, 100, 50]","[34675.5, 5483.29999999702, 847.1000000089407]",0,[],194,"[None, None, None]","['', 50, 100, 50, -20, -1000, 100, 50, -50, -50, 100, -50, 50]",356727,[],mouselab-mdp
1,5,"[8513, 9365, 10146]","['right', 'right', 'up']",training,"['0', '5', '6', '7']","{'click': {'state': {'target': ['9', '5', '1', '6', '7'], 'time': [2655, 3994, 5089, 6184, 7271]}, 'edge': {'target': [], 'time': []}}, 'mouseover': {'state': {'target': ['10', '0', '9', '5', '1', '6', '7'], 'time': [1605, 1989, 2304, 3139, 4638, 5605, 6855]}, 'edge': {'target': [], 'time': []}}, 'mouseout': {'state': {'target': ['10', '0', '9', '5', '1', '6', '7', '5'], 'time': [1621, 2254, 3088, 4422, 5521, 6821, 7839, 7921]}, 'edge': {'target': [], 'time': []}}}","[100, -20, 50]","[15391.199999988079, 204.79999999701977, 560.0999999940395]",0,[],125,"[None, None, None]","['', 50, 50, 50, 100, 100, -20, 50, -1000, -50, -50, -20, -50]",380902,[],mouselab-mdp
1,6,"[17098, 17781, 21527]","['left', 'left', 'down']",training,"['0', '9', '10', '12']","{'click': {'state': {'target': ['9', '5', '1', '10', '6', '2', '11', '12'], 'time': [2661, 4390, 5669, 7218, 8761, 10202, 13553, 14848]}, 'edge': {'target': [], 'time': []}}, 'mouseover': {'state': {'target': ['0', '0', '9', '0', '5', '1', '10', '6', '2', '11', '12'], 'time': [1277, 2216, 2277, 3494, 4111, 5043, 6727, 8410, 9843, 12960, 14243]}, 'edge': {'target': [], 'time': []}}, 'mouseout': {'state': {'target': ['0', '0', '9', '0', '5', '1', '10', '6', '2', '1', '11', '10', '12'], 'time': [1627, 2227, 3344, 3610, 4694, 6610, 8027, 9510, 10644, 10693, 14143, 14210, 15126]}, 'edge': {'target': [], 'time': []}}}","[50, 100, -50]","[23112.09999999404, 395.29999999701977, 120.90000000596046]",0,[],92,"[None, None, None]","['', 50, -50, 100, -50, 50, -50, 50, 100, 50, 100, -50, -50]",391481,[],mouselab-mdp
1,7,"[8607, 9431, 10068]","['up', 'up', 'left']",training,"['0', '1', '2', '4']","{'click': {'state': {'target': ['9', '1', '5', '2', '4'], 'time': [2181, 3289, 4230, 6044, 7105]}, 'edge': {'target': [], 'time': []}}, 'mouseover': {'state': {'target': ['0', '9', '1', '1', '5', '2', '2', '4'], 'time': [976, 1878, 2510, 2877, 3959, 5260, 5660, 6726]}, 'edge': {'target': [], 'time': []}}, 'mouseout': {'state': {'target': ['0', '9', '1', '1', '5', '1', '2', '2'], 'time': [1509, 2476, 2544, 3626, 5209, 5259, 5309, 6676]}, 'edge': {'target': [], 'time': []}}}","[50, 50, 100]","[20175.90000000596, 341.29999999701977, 1261.0999999940395]",0,[],195,"[None, None, None]","['', 50, 50, -50, 100, 50, -50, 50, -1000, 50, -20, 100, 100]",404649,[],mouselab-mdp
1,8,"[7634, 8361, 9070]","['left', 'left', 'up']",training,"['0', '9', '10', '11']","{'click': {'state': {'target': ['1', '9', '5', '10', '11'], 'time': [1900, 2811, 3811, 5215, 6611]}, 'edge': {'target': [], 'time': []}}, 'mouseover': {'state': {'target': ['4', '0', '1', '9', '0', '5', '0', '10', '11'], 'time': [None, 1236, 1319, 2352, 3186, 3452, 4603, 4952, 6286]}, 'edge': {'target': [], 'time': []}}, 'mouseout': {'state': {'target': ['4', '0', '1', '9', '0', '5', '0', '9', '10', '11'], 'time': [719, 1286, 2236, 3118, 3336, 4586, 4636, 4886, 6235, 7152]}, 'edge': {'target': [], 'time': []}}}","[50, 100, 50]","[11736.59999999404, 302.6000000089407, 235.79999999701977]",0,[],195,"[None, None, None]","['', -20, 50, -50, -50, 50, 100, -50, 100, 50, 100, 50, -50]",431223,[],mouselab-mdp
1,9,"[6768, 7489, 8079]","['right', 'right', 'up']",training,"['0', '5', '6', '7']","{'click': {'state': {'target': ['9', '5', '1', '6', '7'], 'time': [1657, 2768, 3833, 4834, 5848]}, 'edge': {'target': [], 'time': []}}, 'mouseover': {'state': {'target': ['9', '0', '5', '1', '1', '6', '7'], 'time': [1301, 2168, 2418, 3151, 3467, 4501, 5400]}, 'edge': {'target': [], 'time': []}}, 'mouseout': {'state': {'target': ['9', '0', '5', '1', '1', '6', '7', '5'], 'time': [2150, 2184, 3118, 3184, 4133, 5383, 6267, 6301]}, 'edge': {'target': [], 'time': []}}}","[100, 100, 100]","[8510.09999999404, 341, 287.69999998807907]",0,[],295,"[None, None, None]","['', -50, 100, -50, -50, 100, 100, 100, 50, -50, 100, 100, -1000]",460577,[],mouselab-mdp
1,10,"[9549, 10379, 11149]","['left', 'left', 'down']",training,"['0', '9', '10', '12']","{'click': {'state': {'target': ['9', '1', '5', '11', '12', '10'], 'time': [1588, 2460, 3372, 4571, 5769, 6828]}, 'edge': {'target': [], 'time': []}}, 'mouseover': {'state': {'target': ['9', '1', '5', '0', '11', '10', '12', '10'], 'time': [1202, 1953, 2803, 3819, 4186, 5119, 5269, 6336]}, 'edge': {'target': [], 'time': []}}, 'mouseout': {'state': {'target': ['9', '1', '5', '0', '11', '10', '12', '10'], 'time': [1887, 2753, 3803, 3836, 5070, 5202, 6286, 7419]}, 'edge': {'target': [], 'time': []}}}","[100, -20, 50]","[17096.70000000298, 167.79999999701977, 3232.5999999940395]",0,[],124,"[None, None, None]","['', -50, 50, -1000, 100, -50, -20, -50, -1000, 100, -20, 50, 50]",481472,[],mouselab-mdp
1,11,"[17375, 18093, 18715]","['right', 'right', 'down']",training,"['0', '5', '6', '8']","{'click': {'state': {'target': ['9', '1', '5', '6', '7', '2', '3', '8', '10'], 'time': [1507, 2212, 3160, 4711, 6041, 7298, 8873, 11995, 13625]}, 'edge': {'target': [], 'time': []}}, 'mouseover': {'state': {'target': ['9', '1', '5', '6', '7', '2', '3', '4', '8', '0', '10', '0'], 'time': [1124, 1825, 2827, 4308, 5658, 6774, 8574, 9658, 11574, 12691, 13159, 14924]}, 'edge': {'target': [], 'time': []}}, 'mouseout': {'state': {'target': ['9', '1', '5', '6', '7', '2', '3', '2', '4', '1', '5', '8', '0', '9', '10', '9'], 'time': [1775, 2542, 4241, 5642, 6707, 8524, 9558, 9625, 10324, 10391, 11041, 12641, 12707, 13074, 14557, 14841]}, 'edge': {'target': [], 'time': []}}}","[50, 50, -50]","[8603.39999999106, 303, 121.70000000298023]",0,[],41,"[None, None, None]","['', 50, -1000, 100, -1000, 50, 50, -50, -50, -50, -1000, 50, 100]",500451,[],mouselab-mdp
1,12,"[14929, 15668, 16368]","['right', 'right', 'up']",training,"['0', '5', '6', '7']","{'click': {'state': {'target': ['9', '1', '5', '6', '2', '4', '3', '7', '8', '10'], 'time': [1677, 2507, 3447, 4630, 6173, 7282, 8790, 9761, 11393, 13201]}, 'edge': {'target': [], 'time': []}}, 'mouseover': {'state': {'target': ['0', '9', '1', '5', '6', '2', '4', '3', '7', '8', '10', '0'], 'time': [None, 1270, 2019, 3103, 4320, 5586, 6920, 8104, 9203, 11086, 12752, 14237]}, 'edge': {'target': [], 'time': []}}, 'mouseout': {'state': {'target': ['0', '9', '1', '5', '6', '2', '4', '2', '3', '7', '5', '8', '9', '10', '9'], 'time': [1220, 1970, 2837, 4286, 5469, 6886, 8053, 8086, 9136, 10453, 10720, 11736, 12719, 14203, 14219]}, 'edge': {'target': [], 'time': []}}}","[50, -50, 50]","[7631.29999999702, 207.5, 198.5]",0,[],40,"[None, None, None]","['', 50, -50, -20, -50, 50, -50, 50, -20, -50, -1000, -50, 50]",546082,[],mouselab-mdp
1,13,"[10785, 11540, 12321]","['right', 'right', 'down']",training,"['0', '5', '6', '8']","{'click': {'state': {'target': ['9', '1', '5', '7', '8'], 'time': [3511, 4339, 5509, 8837, 10019]}, 'edge': {'target': [], 'time': []}}, 'mouseover': {'state': {'target': ['0', '9', '1', '5', '6', '6', '7', '6', '8'], 'time': [None, 3173, 3973, 5190, 6991, 7740, 8540, 9407, 9457]}, 'edge': {'target': [], 'time': []}}, 'mouseout': {'state': {'target': ['0', '9', '1', '5', '6', '6', '7', '6', '8'], 'time': [3073, 3839, 4906, 6973, 7009, 8439, 9373, 9432, 10273]}, 'edge': {'target': [], 'time': []}}}","[50, -20, 50]","[6765.70000000298, 203.19999998807907, 76.59999999403954]",0,[],75,"[None, None, None]","['', -1000, -20, -50, -50, 50, -20, -20, 50, -1000, -50, -1000, -20]",567117,[],mouselab-mdp
1,14,"[9551, 10480, 11203]","['up', 'up', 'right']",training,"['0', '1', '2', '3']","{'click': {'state': {'target': ['9', '1', '5', '4', '3'], 'time': [2512, 3422, 4253, 6509, 7606]}, 'edge': {'target': [], 'time': []}}, 'mouseover': {'state': {'target': ['0', '9', '1', '5', '0', '2', '4', '2', '3'], 'time': [1783, 2133, 2950, 3933, 5449, 5866, 6216, 7016, 7282]}, 'edge': {'target': [], 'time': []}}, 'mouseout': {'state': {'target': ['0', '9', '1', '5', '0', '1', '2', '4', '2', '3'], 'time': [1833, 2783, 3666, 4616, 5466, 5532, 6149, 6982, 7099, 8071]}, 'edge': {'target': [], 'time': []}}}","[100, -20, 50]","[9546.29999999702, 289.6000000089407, 260.5]",0,[],125,"[None, None, None]","['', 100, -20, 50, -50, -20, 100, 50, 100, 50, 100, -20, -50]",594296,[],mouselab-mdp
1,15,"[7093, 7766, 8891]","['right', 'right', 'down']",training,"['0', '5', '6', '8']","{'click': {'state': {'target': ['9', '1', '5', '7', '8'], 'time': [1679, 2457, 3435, 4831, 6124]}, 'edge': {'target': [], 'time': []}}, 'mouseover': {'state': {'target': ['0', '0', '9', '1', '5', '7', '6', '8'], 'time': [1014, 1065, 1364, 2030, 3131, 4182, 5299, 5336]}, 'edge': {'target': [], 'time': []}}, 'mouseout': {'state': {'target': ['0', '0', '9', '1', '5', '7', '6', '8'], 'time': [1032, 1082, 1947, 2781, 4147, 5280, 5318, 6397]}, 'edge': {'target': [], 'time': []}}}","[50, 50, -50]","[17372.90000000596, 215.8999999910593, 122.09999999403954]",0,[],45,"[None, None, None]","['', -50, -1000, -20, 50, 50, 50, -1000, -50, -1000, -20, -1000, 100]",619278,[],mouselab-mdp
1,16,"[14344, 15280, 17024]","['left', 'left', 'up']",training,"['0', '9', '10', '11']","{'click': {'state': {'target': ['9', '1', '5', '11', '12', '4', '3', '2'], 'time': [1651, 2266, 3034, 5332, 6501, 8941, 10052, 11844]}, 'edge': {'target': [], 'time': []}}, 'mouseover': {'state': {'target': ['9', '1', '5', '0', '10', '11', '10', '12', '10', '4', '2', '3', '2'], 'time': [1254, 1921, 2655, 4172, 4587, 5037, 5805, 5887, 7287, 8604, 9288, 9654, 11537]}, 'edge': {'target': [], 'time': []}}, 'mouseout': {'state': {'target': ['9', '1', '5', '0', '9', '10', '11', '10', '12', '10', '4', '2', '3', '1', '2', '1', '9'], 'time': [1888, 2589, 4155, 4205, 4537, 4687, 5787, 5838, 7204, 7970, 9270, 9521, 10687, 10738, 12671, 12704, 12754]}, 'edge': {'target': [], 'time': []}}}","[100, -50, -20]","[14926.5, 230, 178.5]",0,[],22,"[None, None, None]","['', 50, -1000, -20, -1000, -20, -20, 50, 50, 100, -50, -20, -50]",634157,[],mouselab-mdp
1,17,"[13624, 14268, 14923]","['up', 'up', 'left']",training,"['0', '1', '2', '4']","{'click': {'state': {'target': ['9', '1', '5', '7', '8', '4', '3', '2'], 'time': [1635, 2376, 3780, 6471, 7529, 8875, 9939, 11196]}, 'edge': {'target': [], 'time': []}}, 'mouseover': {'state': {'target': ['9', '1', '8', '5', '7', '6', '8', '4', '2', '3', '2'], 'time': [1274, 1926, 2727, 3241, 5824, 6843, 6883, 8524, 9507, 9558, 10842]}, 'edge': {'target': [], 'time': []}}, 'mouseout': {'state': {'target': ['9', '1', '8', '5', '7', '6', '8', '1', '4', '2', '3', '2'], 'time': [1891, 2691, 3158, 5507, 6824, 6861, 7835, 8124, 9474, 9541, 10824, 11807]}, 'edge': {'target': [], 'time': []}}}","[50, 50, 100]","[10781.5, 264, 260.5]",0,[],192,"[None, None, None]","['', 50, 50, 100, 100, -50, 100, 50, -50, -20, -20, -20, -50]",646096,[],mouselab-mdp
1,18,"[27261, 28068, 28945]","['left', 'left', 'up']",training,"['0', '9', '10', '11']","{'click': {'state': {'target': ['9', '1', '5', '3', '4', '2', '11', '12', '10', '6', '7', '8'], 'time': [3278, 3933, 4668, 6665, 7863, 9635, 11297, 12603, 13501, 16806, 17770, 18930]}, 'edge': {'target': [], 'time': []}}, 'mouseover': {'state': {'target': ['9', '1', '5', '2', '3', '2', '4', '11', '2', '11', '10', '12', '10', '0', '6', '6', '7', '8'], 'time': [2906, 3555, 4307, 5523, 6023, 7289, 7355, 8722, 9089, 10872, 11905, 12256, 13123, 14609, 15506, 16539, 17456, 18355]}, 'edge': {'target': [], 'time': []}}, 'mouseout': {'state': {'target': ['9', '1', '5', '2', '3', '2', '4', '11', '2', '11', '10', '12', '10', '9', '0', '5', '6', '6', '7', '6', '8', '8'], 'time': [3489, 4289, 5473, 5972, 7255, 7307, 8622, 8972, 10488, 11872, 11939, 13088, 14039, 14372, 14939, 15007, 15622, 17406, 18272, 18322, 19222, 30523]}, 'edge': {'target': [], 'time': []}}}","[50, 50, -50]","[9549.09999999404, 428.29999999701977, 188.20000000298023]",0,[],38,"[None, None, None]","['', 50, -1000, 100, 50, -50, 50, -50, -1000, 50, 50, -50, -50]",669119,[],mouselab-mdp
1,19,"[13885, 14707, 15393]","['right', 'right', 'up']",training,"['0', '5', '6', '7']","{'click': {'state': {'target': ['9', '1', '5', '3', '4', '11', '10', '12', '2', '7', '6'], 'time': [1580, 2169, 2912, 5711, 6689, 7937, 8621, 9267, 10430, 11722, 12861]}, 'edge': {'target': [], 'time': []}}, 'mouseover': {'state': {'target': ['0', '9', '1', '5', '3', '2', '4', '11', '10', '12', '2', '7', '6', '8', '6', '0'], 'time': [960, 1309, 1894, 2609, 5276, 6195, 6292, 7343, 8326, 8912, 10126, 11309, 12060, 12101, 12509, 13578]}, 'edge': {'target': [], 'time': []}}, 'mouseout': {'state': {'target': ['0', '9', '1', '5', '3', '2', '4', '11', '10', '12', '9', '2', '7', '6', '8', '6', '5', '0'], 'time': [993, 1829, 2543, 5059, 6176, 6226, 7225, 8243, 8892, 9809, 9843, 10959, 12025, 12079, 12476, 13526, 13559, 13602]}, 'edge': {'target': [], 'time': []}}}","[50, 100, 100]","[7090.20000000298, 165.09999999403954, 585]",0,[],239,"[None, None, None]","['', 100, -50, 50, -20, 50, 100, 100, -50, -50, -50, -50, -50]",680235,[],mouselab-mdp
1,20,"[17097, 17854, 18504]","['right', 'right', 'down']",training,"['0', '5', '6', '8']","{'click': {'state': {'target': ['9', '1', '5', '11', '4', '3', '2', '12', '6', '7', '8'], 'time': [1420, 2707, 3663, 5690, 6858, 8146, 9351, 11614, 14187, 15031, 16347]}, 'edge': {'target': [], 'time': []}}, 'mouseover': {'state': {'target': ['9', '9', '1', '5', '11', '4', '2', '3', '2', '10', '12', '8', '6', '6', '7', '8'], 'time': [769, 1019, 2236, 3369, 5352, 6419, 7519, 7853, 9021, 10519, 11269, 12811, 13205, 13836, 14702, 16053]}, 'edge': {'target': [], 'time': []}}, 'mouseout': {'state': {'target': ['9', '9', '1', '5', '11', '4', '2', '3', '2', '10', '12', '8', '6', '6', '7', '6', '8'], 'time': [803, 1752, 3019, 4903, 6386, 7468, 7803, 8969, 9886, 11219, 12202, 13186, 13269, 14653, 15686, 15970, 16653]}, 'edge': {'target': [], 'time': []}}}","[50, 50, 50]","[14342.29999999702, 434.80000001192093, 1216.0999999940395]",0,[],139,"[None, None, None]","['', -50, 50, -20, -20, 50, 50, -50, 50, 50, -50, -50, -50]",690535,[],mouselab-mdp
1,21,"[19154, 19904, 21818]","['right', 'right', 'up']",training,"['0', '5', '6', '7']","{'click': {'state': {'target': ['9', '1', '5', '7', '8', '6', '10', '11', '12'], 'time': [2482, 3401, 4349, 6685, 8163, 9061, 12116, 12984, 13947]}, 'edge': {'target': [], 'time': []}}, 'mouseover': {'state': {'target': ['9', '1', '5', '6', '7', '6', '8', '6', '10', '11', '12'], 'time': [2171, 2821, 3804, 5987, 6372, 7354, 7838, 8671, 11737, 12672, 13640]}, 'edge': {'target': [], 'time': []}}, 'mouseout': {'state': {'target': ['9', '1', '5', '6', '7', '6', '8', '6', '5', '9', '10', '11', '10', '12'], 'time': [2771, 3737, 5621, 6272, 7271, 7804, 8638, 9587, 9640, 11688, 12637, 13570, 13621, 14370]}, 'edge': {'target': [], 'time': []}}}","[100, 50, -50]","[13622.79999999702, 125.70000000298023, 131.79999999701977]",0,[],91,"[None, None, None]","['', -20, 50, -1000, -20, 100, 50, -50, -1000, -50, 50, -50, 100]",700012,[],mouselab-mdp
1,22,"[7461, 8208, 8840]","['right', 'right', 'up']",training,"['0', '5', '6', '7']","{'click': {'state': {'target': ['9', '1', '5', '6', '7'], 'time': [2131, 3022, 3926, 5424, 6278]}, 'edge': {'target': [], 'time': []}}, 'mouseover': {'state': {'target': ['9', '1', '5', '6', '7', '0'], 'time': [1493, 2743, 3592, 5109, 6042, 7162]}, 'edge': {'target': [], 'time': []}}, 'mouseout': {'state': {'target': ['9', '1', '5', '6', '7', '5', '0'], 'time': [2459, 3328, 5059, 5959, 7062, 7142, 7184]}, 'edge': {'target': [], 'time': []}}}","[100, -50, 50]","[27259.5, 308.79999999701977, 363.29999999701977]",0,[],95,"[None, None, None]","['', -50, 50, 50, -50, 100, -50, 50, 50, -50, -50, 50, -1000]",712265,[],mouselab-mdp
1,23,"[18879, 19729, 20445]","['up', 'up', 'right']",training,"['0', '1', '2', '3']","{'click': {'state': {'target': ['5', '9', '1', '2', '4', '3', '10', '11'], 'time': [1926, 3314, 4616, 10376, 11161, 12206, 13940, 14602]}, 'edge': {'target': [], 'time': []}}, 'mouseover': {'state': {'target': ['0', '5', '1', '9', '1', '1', '2', '4', '3', '10', '11'], 'time': [668, 826, 2260, 2877, 3781, 4276, 9893, 10861, 11880, 13359, 14359]}, 'edge': {'target': [], 'time': []}}, 'mouseout': {'state': {'target': ['0', '5', '1', '9', '1', '1', '2', '4', '2', '3', '10', '11'], 'time': [743, 2210, 2281, 3760, 3843, 9809, 10809, 11826, 11859, 13293, 14292, 15276]}, 'edge': {'target': [], 'time': []}}}","[-20, 50, 100]","[13881.39999999106, 297.1000000089407, 155.70000000298023]",0,[],122,"[None, None, None]","['', -20, 50, 100, -50, -1000, -50, 100, -50, -50, 100, 50, 100]",732017,[],mouselab-mdp
1,24,"[9047, 9763, 10324]","['left', 'left', 'up']",training,"['0', '9', '10', '11']","{'click': {'state': {'target': ['9', '1', '5', '11', '10', '12'], 'time': [1772, 2347, 3529, 4897, 5778, 7624]}, 'edge': {'target': [], 'time': []}}, 'mouseover': {'state': {'target': ['10', '9', '1', '5', '10', '11', '10', '12', '12'], 'time': [1170, 1370, 2036, 3236, 4403, 4536, 5504, 6503, 7320]}, 'edge': {'target': [], 'time': []}}, 'mouseout': {'state': {'target': ['10', '9', '1', '5', '9', '10', '11', '10', '12', '12'], 'time': [1286, 1970, 2653, 4036, 4120, 4470, 5437, 6170, 6570, 7904]}, 'edge': {'target': [], 'time': []}}}","[100, -50, 50]","[17093.70000000298, 255.6000000089407, 124]",0,[],94,"[None, None, None]","['', -50, 50, -50, -50, -50, 50, 50, -50, 100, -50, 50, -50]",749440,[],mouselab-mdp
1,25,"[16507, 17334, 18032]","['right', 'right', 'up']",training,"['0', '5', '6', '7']","{'click': {'state': {'target': ['9', '1', '5', '10', '11', '12', '2', '4', '7', '6'], 'time': [1628, 2951, 3827, 5334, 5914, 8067, 10766, 11543, 12646, 13984]}, 'edge': {'target': [], 'time': []}}, 'mouseover': {'state': {'target': ['9', '1', '5', '0', '10', '11', '12', '2', '4', '7', '6', '6'], 'time': [1344, 2642, 3493, 4333, 4809, 5660, 7759, 10264, 11276, 12326, 12960, 13660]}, 'edge': {'target': [], 'time': []}}, 'mouseout': {'state': {'target': ['9', '1', '5', '0', '9', '10', '11', '10', '12', '9', '2', '4', '7', '6', '6'], 'time': [1865, 3209, 4310, 4360, 4410, 5593, 7309, 7410, 8309, 10242, 11226, 11959, 12925, 13026, 14425]}, 'edge': {'target': [], 'time': []}}}","[50, -20, 50]","[19152.20000000298, 178.70000000298023, 1389]",0,[],70,"[None, None, None]","['', -50, -20, -50, -50, 50, -20, 50, -1000, 100, 50, -50, -50]",764612,[],mouselab-mdp
1,26,"[7909, 8594, 9299]","['up', 'up', 'right']",training,"['0', '1', '2', '3']","{'click': {'state': {'target': ['9', '1', '5', '2', '4', '3'], 'time': [1535, 2202, 3203, 4341, 5085, 6311]}, 'edge': {'target': [], 'time': []}}, 'mouseover': {'state': {'target': ['0', '9', '1', '5', '2', '4', '3', '0', '0'], 'time': [810, 1127, 1850, 2659, 4060, 4809, 5759, 6876, 6924]}, 'edge': {'target': [], 'time': []}}, 'mouseout': {'state': {'target': ['0', '9', '1', '5', '1', '2', '4', '2', '3', '0', '0'], 'time': [1092, 1826, 2576, 3693, 3777, 4761, 5692, 5726, 6776, 6898, 7110]}, 'edge': {'target': [], 'time': []}}}","[100, 50, 100]","[7459.20000000298, 212.3999999910593, 105.5]",0,[],244,"[None, None, None]","['', 100, 50, 100, -20, -20, 100, 50, -20, 50, 100, -1000, 50]",776846,[],mouselab-mdp
1,27,"[11485, 12253, 12856]","['left', 'left', 'up']",training,"['0', '9', '10', '11']","{'click': {'state': {'target': ['9', '10', '11', '5', '6', '7'], 'time': [1523, 3207, 4449, 8984, 9623, 10439]}, 'edge': {'target': [], 'time': []}}, 'mouseover': {'state': {'target': ['0', '9', '1', '10', '11', '5', '6', '7'], 'time': [905, 1221, 2338, 2612, 4162, 8672, 9355, 10138]}, 'edge': {'target': [], 'time': []}}, 'mouseout': {'state': {'target': ['0', '9', '1', '9', '10', '11', '5', '6', '7', '5'], 'time': [930, 1738, 2521, 2589, 4138, 5388, 9305, 10105, 10821, 10905]}, 'edge': {'target': [], 'time': []}}}","[100, -20, 100]","[18877.09999999404, 327, 194.29999999701977]",0,[],174,"[None, None, None]","['', -20, 100, 50, -50, 100, -50, -50, 50, 100, -20, 100, -1000]",787010,[],mouselab-mdp
1,28,"[9076, 9803, 10455]","['right', 'right', 'up']",training,"['0', '5', '6', '7']","{'click': {'state': {'target': ['9', '1', '5', '7', '6', '8'], 'time': [1763, 3033, 3983, 5174, 6466, 8232]}, 'edge': {'target': [], 'time': []}}, 'mouseover': {'state': {'target': ['0', '9', '1', '5', '7', '6', '8'], 'time': [1041, 1440, 2692, 3741, 4857, 6124, 7974]}, 'edge': {'target': [], 'time': []}}, 'mouseout': {'state': {'target': ['0', '9', '1', '5', '7', '6', '8'], 'time': [1140, 2208, 3441, 4574, 6075, 6874, 8457]}, 'edge': {'target': [], 'time': []}}}","[100, -50, 100]","[9044.79999999702, 195.79999999701977, 46]",0,[],144,"[None, None, None]","['', 50, 50, 100, 50, 100, -50, 100, -50, -50, 50, 100, -20]",805585,[],mouselab-mdp
1,29,"[17390, 18126, 18812]","['left', 'left', 'down']",training,"['0', '9', '10', '12']","{'click': {'state': {'target': ['9', '1', '5', '2', '4', '3', '10', '11', '12', '6', '7'], 'time': [1848, 3171, 4045, 5774, 7391, 8626, 10323, 11515, 12823, 14844, 15684]}, 'edge': {'target': [], 'time': []}}, 'mouseover': {'state': {'target': ['9', '1', '5', '2', '4', '4', '3', '10', '11', '12', '6', '7'], 'time': [1528, 2878, 3744, 5136, 6454, 7127, 8344, 9927, 11244, 12236, 14410, 15373]}, 'edge': {'target': [], 'time': []}}, 'mouseout': {'state': {'target': ['9', '1', '5', '1', '2', '4', '4', '2', '3', '10', '11', '10', '12', '6', '7', '5'], 'time': [2077, 3411, 5028, 5110, 6428, 6482, 8044, 8094, 9110, 11195, 12144, 12211, 13127, 15345, 16061, 16113]}, 'edge': {'target': [], 'time': []}}}","[50, 100, -20]","[16506, 304.79999999701977, 167]",0,[],119,"[None, None, None]","['', 50, -50, 50, -20, -20, -50, 50, -50, 50, 100, -20, -20]",821264,[],mouselab-mdp
1,30,"[16797, 17656, 18471]","['up', 'up', 'left']",training,"['0', '1', '2', '4']","{'click': {'state': {'target': ['9', '1', '5', '7', '4', '2', '3', '6', '8', '12', '10'], 'time': [3449, 4015, 4757, 6256, 7573, 9211, 9799, 10961, 11601, 12681, 13316]}, 'edge': {'target': [], 'time': []}}, 'mouseover': {'state': {'target': ['0', '9', '1', '5', '7', '4', '2', '2', '3', '6', '8', '12', '10', '0', '0'], 'time': [1175, 3142, 3727, 4492, 5792, 6941, 8159, 8875, 9518, 10275, 11319, 12374, 13018, 13958, 14308]}, 'edge': {'target': [], 'time': []}}, 'mouseout': {'state': {'target': ['0', '9', '1', '5', '7', '4', '2', '2', '3', '6', '8', '12', '10', '9', '0', '0'], 'time': [2909, 3660, 4441, 5575, 6858, 8108, 8458, 9491, 10208, 11291, 11991, 12991, 13675, 13924, 13985, 14558]}, 'edge': {'target': [], 'time': []}}}","[-20, -50, 50]","[7907.20000000298, 141.20000000298023, 168.09999999403954]",0,[],-31,"[None, None, None]","['', -20, -50, 50, 50, -20, -20, -50, -50, -1000, -50, -20, 50]",852572,[],mouselab-mdp
1,31,"[9733, 10596, 11406]","['right', 'right', 'down']",training,"['0', '5', '6', '8']","{'click': {'state': {'target': ['9', '1', '5', '7', '8', '6'], 'time': [3513, 4136, 5275, 6577, 7641, 9069]}, 'edge': {'target': [], 'time': []}}, 'mouseover': {'state': {'target': ['0', '0', '9', '1', '5', '6', '7', '6', '8', '6'], 'time': [1172, 3102, 3201, 3834, 4484, 5918, 6245, 6995, 7301, 8315]}, 'edge': {'target': [], 'time': []}}, 'mouseout': {'state': {'target': ['0', '0', '9', '1', '5', '6', '7', '6', '8', '6'], 'time': [1550, 3153, 3784, 4435, 5867, 6217, 6967, 7026, 8284, 9335]}, 'edge': {'target': [], 'time': []}}}","[50, -50, -20]","[11482.79999999702, 256.40000000596046, 67.8999999910593]",0,[],-26,"[None, None, None]","['', -50, -1000, 50, 100, 50, -50, -50, -20, -50, -20, 50, -50]",869178,[],mouselab-mdp
1,32,"[10199, 11042, 12019]","['right', 'right', 'up']",training,"['0', '5', '6', '7']","{'click': {'state': {'target': ['9', '1', '5', '11', '7', '6'], 'time': [3351, 4071, 5020, 6335, 8071, 9145]}, 'edge': {'target': [], 'time': []}}, 'mouseover': {'state': {'target': ['0', '9', '1', '5', '0', '11', '7', '6'], 'time': [1825, 2857, 3675, 4708, 5655, 6042, 7724, 8808]}, 'edge': {'target': [], 'time': []}}, 'mouseout': {'state': {'target': ['0', '9', '1', '5', '0', '11', '1', '7', '6'], 'time': [2075, 3608, 4408, 5625, 5692, 6974, 7025, 8774, 9775]}, 'edge': {'target': [], 'time': []}}}","[100, 50, 100]","[9073.89999999106, 211.40000000596046, 141.5]",0,[],244,"[None, None, None]","['', 50, -50, -50, -50, 100, 50, 100, -20, 100, -20, 50, -50]",888525,[],mouselab-mdp
1,33,"[17843, 18696, 19370]","['right', 'right', 'down']",training,"['0', '5', '6', '8']","{'click': {'state': {'target': ['1', '9', '5', '4', '3', '11', '12', '10', '2', '6', '7', '8'], 'time': [1836, 2550, 3894, 5873, 6836, 7880, 9136, 10298, 12760, 15068, 16098, 17141]}, 'edge': {'target': [], 'time': []}}, 'mouseover': {'state': {'target': ['0', '1', '9', '0', '5', '5', '4', '3', '11', '10', '12', '10', '2', '0', '0', '0', '6', '7', '8'], 'time': [1407, 1508, 2207, 2857, 3090, 3573, 5540, 6490, 7273, 8252, 8590, 10024, 12123, 13323, 13590, 14456, 14553, 15590, 16739]}, 'edge': {'target': [], 'time': []}}, 'mouseout': {'state': {'target': ['0', '1', '9', '0', '5', '5', '1', '4', '3', '11', '10', '12', '10', '9', '2', '0', '0', '0', '5', '6', '7', '6', '8'], 'time': [1440, 2123, 2807, 2885, 3140, 4873, 5445, 6206, 7206, 8223, 8523, 9956, 10706, 12040, 13230, 13351, 13674, 14485, 14523, 15506, 16489, 16540, 17373]}, 'edge': {'target': [], 'time': []}}}","[-20, 100, 100]","[17388.70000000298, 242.5, 142.70000000298023]",0,[],168,"[None, None, None]","['', 50, -20, -20, -50, -20, 100, -50, 100, 50, -20, -50, 50]",911432,[],mouselab-mdp
1,34,"[15046, 15812, 16558]","['left', 'left', 'down']",training,"['0', '9', '10', '12']","{'click': {'state': {'target': ['9', '1', '5', '3', '2', '4', '10', '11', '12'], 'time': [1808, 2491, 3645, 4813, 6181, 7189, 8431, 9321, 10388]}, 'edge': {'target': [], 'time': []}}, 'mouseover': {'state': {'target': ['0', '9', '1', '5', '3', '2', '4', '10', '11', '12'], 'time': [1130, 1464, 2164, 2860, 4497, 5627, 6880, 8113, 8997, 9834]}, 'edge': {'target': [], 'time': []}}, 'mouseout': {'state': {'target': ['0', '9', '1', '5', '3', '2', '4', '10', '11', '10', '12'], 'time': [1160, 2064, 2830, 4130, 5597, 6830, 7630, 8930, 9747, 9781, 10647]}, 'edge': {'target': [], 'time': []}}}","[50, -20, 50]","[16793.79999999702, 339.29999999701977, 284.29999999701977]",0,[],71,"[None, None, None]","['', 100, -1000, 100, -1000, -1000, 100, 50, -20, 50, -20, -50, 50]",921222,[],mouselab-mdp
2,0,"[32444, 41859, 51716]","['right', 'right', 'up']",training,"['0', '5', '6', '7']","{'click': {'state': {'target': ['9', '5'], 'time': [18224, 31001]}, 'edge': {'target': [], 'time': []}}, 'mouseover': {'state': {'target': ['9', '5', '5', '5'], 'time': [11963, 18664, 20029, 27464]}, 'edge': {'target': [], 'time': []}}, 'mouseout': {'state': {'target': ['9', '5', '5', '5', '6', '6', '8'], 'time': [18597, 19829, 23463, 31263, 41330, 44963, 46596]}, 'edge': {'target': [], 'time': []}}}","[4, -6, -4]","[111296.29999999702, 26727.900000002235, 32441.400000002235]",3,0,-8,"[None, None, None]","['', 4, 6, -6, -6, 4, -6, -4, 2, -6, 6, -6, -4]",111298,[],mouselab-mdp
2,1,"[9608, 12208, 15592]","['right', 'right', 'down']",training,"['0', '5', '6', '8']","{'click': {'state': {'target': ['1', '5'], 'time': [4798, 8005]}, 'edge': {'target': [], 'time': []}}, 'mouseover': {'state': {'target': ['6', '5', '1', '5', '6', '6'], 'time': [3128, 3228, 3495, 6028, 8328, 9095]}, 'edge': {'target': [], 'time': []}}, 'mouseout': {'state': {'target': ['6', '5', '1', '5', '6', '6', '6'], 'time': [3195, 3328, 5828, 8295, 8361, 9195, 9761]}, 'edge': {'target': [], 'time': []}}}","[2, 2, -4]","[8926.5, 9318.199999999255, 9606.599999997765]",3,0.01,-2,"[None, None, None]","['', 4, -6, 2, 4, 2, 2, 4, -4, 4, 6, 6, 6]",138028,[],mouselab-mdp
2,2,"[3407, 7517, 10390]","['right', 'right', 'down']",training,"['0', '5', '6', '8']","{'click': {'state': {'target': [], 'time': []}, 'edge': {'target': [], 'time': []}}, 'mouseover': {'state': {'target': [], 'time': []}, 'edge': {'target': [], 'time': []}}, 'mouseout': {'state': {'target': [], 'time': []}, 'edge': {'target': [], 'time': []}}}","[6, -2, -4]","[2112.39999999851, 2896.699999999255, 3407.10000000149]",3,[],0,"[None, None, None]","['', 4, 6, 6, 4, 6, -2, 2, -4, 2, 6, 6, -6]",193089,[],mouselab-mdp
2,3,"[2656, 4189, 6127]","['up', 'up', 'left']",training,"['0', '1', '2', '4']","{'click': {'state': {'target': [], 'time': []}, 'edge': {'target': [], 'time': []}}, 'mouseover': {'state': {'target': [], 'time': []}, 'edge': {'target': [], 'time': []}}, 'mouseout': {'state': {'target': [], 'time': []}, 'edge': {'target': [], 'time': []}}}","[-2, -2, -2]","[3635.10000000149, 2374.800000000745, 2654.599999997765]",3,[],-6,"[None, None, None]","['', -2, -2, 4, -2, -4, 6, -2, -2, -6, -4, 4, -6]",211210,[],mouselab-mdp
2,4,"[2399, 3545, 11268]","['up', 'up', 'left']",training,"['0', '1', '2', '4']","{'click': {'state': {'target': ['1'], 'time': [1781]}, 'edge': {'target': [], 'time': []}}, 'mouseover': {'state': {'target': ['1', '5'], 'time': [1531, 2064]}, 'edge': {'target': [], 'time': []}}, 'mouseout': {'state': {'target': ['1', '5', '3'], 'time': [1998, 2097, 6064]}, 'edge': {'target': [], 'time': []}}}","[6, 4, 4]","[1055, 1460, 2397.5]",3,[],13,"[None, None, None]","['', 6, 4, -2, 4, 4, -2, 6, 4, 6, -4, 6, -2]",223895,[],mouselab-mdp
2,5,"[4202, 5734, 7947]","['left', 'left', 'down']",training,"['0', '9', '10', '12']","{'click': {'state': {'target': ['9'], 'time': [3026]}, 'edge': {'target': [], 'time': []}}, 'mouseover': {'state': {'target': ['9'], 'time': [2504]}, 'edge': {'target': [], 'time': []}}, 'mouseout': {'state': {'target': ['9'], 'time': [3204]}, 'edge': {'target': [], 'time': []}}}","[4, -2, -6]","[614.1999999992549, 7236, 4201]",3,[],-5,"[None, None, None]","['', 2, 6, -2, -6, 4, -4, -6, -6, 4, -2, -4, -6]",232031,[],mouselab-mdp
2,6,"[14993, 15947, 17037]","['left', 'left', 'up']",training,"['0', '9', '10', '11']","{'click': {'state': {'target': ['9', '1', '5'], 'time': [2608, 5521, 6352]}, 'edge': {'target': [], 'time': []}}, 'mouseover': {'state': {'target': ['6', '5', '0', '0', '0', '5', '0', '9', '1', '5', '7'], 'time': [None, 600, 867, 1067, 1566, 1766, 2033, 2300, 3267, 6067, 6600]}, 'edge': {'target': [], 'time': []}}, 'mouseout': {'state': {'target': ['6', '5', '0', '0', '0', '5', '0', '9', '1', '5', '7'], 'time': [467, 734, 899, 1133, 1600, 1934, 2233, 2833, 6000, 6566, 6633]}, 'edge': {'target': [], 'time': []}}}","[-4, 4, -6]","[1062.4000000022352, 1741.8999999985099, 14992.39999999851]",3,[],-9,"[None, None, None]","['', -2, -4, 6, -4, 2, 6, -4, 4, -4, 4, -6, 4]",245961,[],mouselab-mdp
2,7,"[5901, 6876, 9229]","['up', 'up', 'right']",training,"['0', '1', '2', '3']","{'click': {'state': {'target': ['5', '1', '9'], 'time': [1098, 2741, 3997]}, 'edge': {'target': [], 'time': []}}, 'mouseover': {'state': {'target': ['7', '5', '7', '1', '9'], 'time': [497, 897, 2097, 2163, 3664]}, 'edge': {'target': [], 'time': []}}, 'mouseout': {'state': {'target': ['7', '5', '7', '1', '9'], 'time': [597, 1297, 2130, 2997, 4164]}, 'edge': {'target': [], 'time': []}}}","[-2, 6, -4]","[480, 602.5, 5900.60000000149]",3,[],-3,"[None, None, None]","['', -2, 6, -4, -6, -4, 2, 2, -6, 2, -6, 6, 2]",255961,[],mouselab-mdp
2,8,"[5819, 6712, 7935]","['right', 'right', 'up']",training,"['0', '5', '6', '7']","{'click': {'state': {'target': ['5'], 'time': [4735]}, 'edge': {'target': [], 'time': []}}, 'mouseover': {'state': {'target': ['7', '5'], 'time': [711, 3445]}, 'edge': {'target': [], 'time': []}}, 'mouseout': {'state': {'target': ['7', '5'], 'time': [878, 4945]}, 'edge': {'target': [], 'time': []}}}","[-4, -2, 6]","[445.30000000074506, 1864.6000000014901, 5817.699999999255]",3,[],-1,"[None, None, None]","['', -4, 2, 2, -6, -4, -2, 6, -6, -6, -6, -2, -4]",275065,[],mouselab-mdp
2,9,"[6568, 8005, 9837]","['up', 'up', 'left']",training,"['0', '1', '2', '4']","{'click': {'state': {'target': [], 'time': []}, 'edge': {'target': [], 'time': []}}, 'mouseover': {'state': {'target': ['1', '1'], 'time': [None, 980]}, 'edge': {'target': [], 'time': []}}, 'mouseout': {'state': {'target': ['1', '1'], 'time': [314, 1047]}, 'edge': {'target': [], 'time': []}}}","[-4, -6, 6]","[399.79999999701977, 722.5, 6567.300000000745]",3,[],-4,"[None, None, None]","['', -4, -6, -2, 6, 4, 4, -6, 4, 4, -4, -2, -6]",286284,[],mouselab-mdp
2,10,"[7260, 8211, 12277]","['right', 'right', 'down']",training,"['0', '5', '6', '8']","{'click': {'state': {'target': ['9', '1', '5'], 'time': [2574, 3755, 4760]}, 'edge': {'target': [], 'time': []}}, 'mouseover': {'state': {'target': ['0', '9', '1', '5'], 'time': [778, 945, 3112, 4545]}, 'edge': {'target': [], 'time': []}}, 'mouseout': {'state': {'target': ['0', '9', '1', '5'], 'time': [845, 3045, 4145, 4978]}, 'edge': {'target': [], 'time': []}}}","[-2, 4, -4]","[956.8999999985099, 1355.699999999255, 7260]",3,[],-5,"[None, None, None]","['', -6, -4, -4, -6, -2, 4, 2, -4, -6, -2, -6, -6]",296614,[],mouselab-mdp
2,11,"[3683, 6883, 9505]","['up', 'up', 'left']",training,"['0', '1', '2', '4']","{'click': {'state': {'target': [], 'time': []}, 'edge': {'target': [], 'time': []}}, 'mouseover': {'state': {'target': ['6', '5'], 'time': [1308, 1607]}, 'edge': {'target': [], 'time': []}}, 'mouseout': {'state': {'target': ['6', '5'], 'time': [1408, 2074]}, 'edge': {'target': [], 'time': []}}}","[6, -4, 2]","[466.30000000074506, 3564.89999999851, 3683.199999999255]",3,[],4,"[None, None, None]","['', 6, -4, 2, 2, 6, -6, -2, 6, -4, -2, 6, -6]",308582,[],mouselab-mdp
2,12,"[2916, 3974, 5589]","['right', 'right', 'down']",training,"['0', '5', '6', '8']","{'click': {'state': {'target': [], 'time': []}, 'edge': {'target': [], 'time': []}}, 'mouseover': {'state': {'target': [], 'time': []}, 'edge': {'target': [], 'time': []}}, 'mouseout': {'state': {'target': [], 'time': []}, 'edge': {'target': [], 'time': []}}}","[-2, -4, -4]","[2708.099999997765, 2130.39999999851, 2915.5]",3,[],-10,"[None, None, None]","['', -6, -2, -2, -4, -2, -4, -4, -4, 4, 4, 6, 4]",322719,[],mouselab-mdp
2,13,"[1224, 2224, 3516]","['right', 'right', 'up']",training,"['0', '5', '6', '7']","{'click': {'state': {'target': [], 'time': []}, 'edge': {'target': [], 'time': []}}, 'mouseover': {'state': {'target': [], 'time': []}, 'edge': {'target': [], 'time': []}}, 'mouseout': {'state': {'target': [], 'time': []}, 'edge': {'target': [], 'time': []}}}","[4, -6, 2]","[573, 1121.5999999977648, 1223.5]",3,[],0,"[None, None, None]","['', 2, -6, -2, -2, 4, -6, 2, 6, 6, 2, 2, 4]",334861,[],mouselab-mdp
2,14,"[15718, 16924, 18843]","['left', 'left', 'up']",training,"['0', '9', '10', '11']","{'click': {'state': {'target': [], 'time': []}, 'edge': {'target': [], 'time': []}}, 'mouseover': {'state': {'target': [], 'time': []}, 'edge': {'target': [], 'time': []}}, 'mouseout': {'state': {'target': [], 'time': []}, 'edge': {'target': [], 'time': []}}}","[-6, 4, -6]","[511.70000000298023, 804.3000000007451, 15717.39999999851]",3,[],-8,"[None, None, None]","['', 2, 6, 6, -4, 2, -6, -6, -2, -6, 4, -6, -4]",342552,[],mouselab-mdp
2,15,"[733, 1631, 2791]","['left', 'left', 'down']",training,"['0', '9', '10', '12']","{'click': {'state': {'target': [], 'time': []}, 'edge': {'target': [], 'time': []}}, 'mouseover': {'state': {'target': [], 'time': []}, 'edge': {'target': [], 'time': []}}, 'mouseout': {'state': {'target': [], 'time': []}, 'edge': {'target': [], 'time': []}}}","[2, -6, -6]","[730.5, 1449.699999999255, 732.5]",3,[],-10,"[None, None, None]","['', 2, 2, -6, -4, 4, -6, 6, 2, 2, -6, 4, -6]",348304,[],mouselab-mdp
2,16,"[1726, 3286, 5570]","['right', 'right', 'up']",training,"['0', '5', '6', '7']","{'click': {'state': {'target': [], 'time': []}, 'edge': {'target': [], 'time': []}}, 'mouseover': {'state': {'target': [], 'time': []}, 'edge': {'target': [], 'time': []}}, 'mouseout': {'state': {'target': [], 'time': []}, 'edge': {'target': [], 'time': []}}}","[6, -4, -6]","[422.6000000014901, 649.3000000007451, 1724.800000000745]",3,[],-4,"[None, None, None]","['', 6, -6, 4, -4, 6, -4, -6, 4, -6, 2, 2, 4]",369689,[],mouselab-mdp
2,17,"[1369, 2535, 3682]","['right', 'right', 'down']",training,"['0', '5', '6', '8']","{'click': {'state': {'target': [], 'time': []}, 'edge': {'target': [], 'time': []}}, 'mouseover': {'state': {'target': [], 'time': []}, 'edge': {'target': [], 'time': []}}, 'mouseout': {'state': {'target': [], 'time': []}, 'edge': {'target': [], 'time': []}}}","[2, 4, 4]","[1086.9000000022352, 1803.5, 1369]",3,[],10,"[None, None, None]","['', 6, -4, -6, -6, 2, 4, 2, 4, -2, 6, 2, 4]",374466,[],mouselab-mdp
2,18,"[1716, 2850, 5138]","['up', 'up', 'left']",training,"['0', '1', '2', '4']","{'click': {'state': {'target': [], 'time': []}, 'edge': {'target': [], 'time': []}}, 'mouseover': {'state': {'target': [], 'time': []}, 'edge': {'target': [], 'time': []}}, 'mouseout': {'state': {'target': [], 'time': []}, 'edge': {'target': [], 'time': []}}}","[-4, 6, -2]","[695.1999999992549, 674.8000000007451, 1716.199999999255]",3,[],0,"[None, None, None]","['', -4, 6, -2, -2, -6, -6, -2, 6, 6, -4, 2, -2]",381955,[],mouselab-mdp
2,19,"[4355, 5340, 6921]","['up', 'up', 'right']",training,"['0', '1', '2', '3']","{'click': {'state': {'target': [], 'time': []}, 'edge': {'target': [], 'time': []}}, 'mouseover': {'state': {'target': [], 'time': []}, 'edge': {'target': [], 'time': []}}, 'mouseout': {'state': {'target': [], 'time': []}, 'edge': {'target': [], 'time': []}}}","[-2, 4, 6]","[647.5, 1769.800000000745, 4354.800000000745]",3,[],8,"[None, None, None]","['', -2, 4, 6, -2, -4, 6, -6, -6, 6, -2, 4, -2]",387659,[],mouselab-mdp
2,20,"[1600, 2529, 3925]","['right', 'right', 'down']",training,"['0', '5', '6', '8']","{'click': {'state': {'target': [], 'time': []}, 'edge': {'target': [], 'time': []}}, 'mouseover': {'state': {'target': [], 'time': []}, 'edge': {'target': [], 'time': []}}, 'mouseout': {'state': {'target': [], 'time': []}, 'edge': {'target': [], 'time': []}}}","[-4, -2, 4]","[508, 1089.0999999977648, 1599.5]",3,[],-2,"[None, None, None]","['', 6, 2, -4, 6, -4, -2, -2, 4, -6, 2, 6, 6]",394662,[],mouselab-mdp
2,21,"[2405, 3509, 6583]","['left', 'left', 'up']",training,"['0', '9', '10', '11']","{'click': {'state': {'target': [], 'time': []}, 'edge': {'target': [], 'time': []}}, 'mouseover': {'state': {'target': [], 'time': []}, 'edge': {'target': [], 'time': []}}, 'mouseout': {'state': {'target': [], 'time': []}, 'edge': {'target': [], 'time': []}}}","[-6, 6, 2]","[443.30000000074506, 906.1000000014901, 2403.60000000149]",3,[],2,"[None, None, None]","['', -4, -4, -4, 4, -4, -6, -6, -2, -6, 6, 2, -4]",403376,[],mouselab-mdp
2,22,"[3969, 4859, 7546]","['up', 'up', 'right']",training,"['0', '1', '2', '3']","{'click': {'state': {'target': [], 'time': []}, 'edge': {'target': [], 'time': []}}, 'mouseover': {'state': {'target': [], 'time': []}, 'edge': {'target': [], 'time': []}}, 'mouseout': {'state': {'target': [], 'time': []}, 'edge': {'target': [], 'time': []}}}","[6, 4, 2]","[604.3999999985099, 2545.39999999851, 3968.199999999255]",3,[],12,"[None, None, None]","['', 6, 4, 2, 4, -4, 2, 6, -2, 2, -6, 2, 6]",409194,[],mouselab-mdp
2,23,"[5106, 6112, 8164]","['left', 'left', 'down']",training,"['0', '9', '10', '12']","{'click': {'state': {'target': [], 'time': []}, 'edge': {'target': [], 'time': []}}, 'mouseover': {'state': {'target': [], 'time': []}, 'edge': {'target': [], 'time': []}}, 'mouseout': {'state': {'target': [], 'time': []}, 'edge': {'target': [], 'time': []}}}","[-6, 2, 2]","[398.9000000022352, 2185, 5105.300000000745]",3,[],-2,"[None, None, None]","['', -6, 2, -4, -4, 2, -6, 6, 2, -6, 2, -6, 2]",417836,[],mouselab-mdp
2,24,"[4167, 5092, 7092]","['up', 'up', 'left']",training,"['0', '1', '2', '4']","{'click': {'state': {'target': [], 'time': []}, 'edge': {'target': [], 'time': []}}, 'mouseover': {'state': {'target': [], 'time': []}, 'edge': {'target': [], 'time': []}}, 'mouseout': {'state': {'target': [], 'time': []}, 'edge': {'target': [], 'time': []}}}","[4, -2, 2]","[526.1000000014901, 1578.5, 4166.39999999851]",3,[],4,"[None, None, None]","['', 4, -2, -2, 2, 6, 6, -2, -2, -4, -6, 6, 4]",427411,[],mouselab-mdp
2,25,"[2565, 3615, 5017]","['right', 'right', 'down']",training,"['0', '5', '6', '8']","{'click': {'state': {'target': [], 'time': []}, 'edge': {'target': [], 'time': []}}, 'mouseover': {'state': {'target': [], 'time': []}, 'edge': {'target': [], 'time': []}}, 'mouseout': {'state': {'target': [], 'time': []}, 'edge': {'target': [], 'time': []}}}","[-6, -2, 4]","[450.80000000074506, 1517.1000000014901, 2564.5]",3,[],-4,"[None, None, None]","['', 6, -4, 4, 6, -6, -2, -6, 4, -4, -2, -6, 2]",437419,[],mouselab-mdp
2,26,"[1416, 2332, 7690]","['right', 'right', 'up']",training,"['0', '5', '6', '7']","{'click': {'state': {'target': [], 'time': []}, 'edge': {'target': [], 'time': []}}, 'mouseover': {'state': {'target': [], 'time': []}, 'edge': {'target': [], 'time': []}}, 'mouseout': {'state': {'target': [], 'time': []}, 'edge': {'target': [], 'time': []}}}","[4, 4, 4]","[552.1000000014901, 920.6999999992549, 1415.3999999985099]",3,[],12,"[None, None, None]","['', -2, 6, 4, 2, 4, 4, 4, 6, -4, -2, -2, 6]",446429,[],mouselab-mdp
2,27,"[9936, 10928, 12339]","['left', 'left', 'up']",training,"['0', '9', '10', '11']","{'click': {'state': {'target': [], 'time': []}, 'edge': {'target': [], 'time': []}}, 'mouseover': {'state': {'target': [], 'time': []}, 'edge': {'target': [], 'time': []}}, 'mouseout': {'state': {'target': [], 'time': []}, 'edge': {'target': [], 'time': []}}}","[6, -4, -2]","[435.5999999977648, 4860, 9935.39999999851]",3,[],0,"[None, None, None]","['', 4, -4, -2, -6, 2, -2, -4, -2, 6, -4, -2, 4]",453232,[],mouselab-mdp
2,28,"[29798, 31419, 33269]","['left', 'left', 'up']",training,"['0', '9', '10', '11']","{'click': {'state': {'target': [], 'time': []}, 'edge': {'target': [], 'time': []}}, 'mouseover': {'state': {'target': [], 'time': []}, 'edge': {'target': [], 'time': []}}, 'mouseout': {'state': {'target': ['2'], 'time': [30223]}, 'edge': {'target': [], 'time': []}}}","[2, 2, -6]","[516, 893.1999999992549, 29797.300000000745]",3,[],-2,"[None, None, None]","['', -4, 6, 2, -6, -6, 2, -2, -6, 2, 2, -6, 2]",462781,[],mouselab-mdp
2,29,"[3099, 4108, 5487]","['left', 'left', 'down']",training,"['0', '9', '10', '12']","{'click': {'state': {'target': [], 'time': []}, 'edge': {'target': [], 'time': []}}, 'mouseover': {'state': {'target': [], 'time': []}, 'edge': {'target': [], 'time': []}}, 'mouseout': {'state': {'target': [], 'time': []}, 'edge': {'target': [], 'time': []}}}","[-4, -6, 4]","[1128.6000000014901, 1379.1000000014901, 3097]",3,[],-6,"[None, None, None]","['', -4, -2, -6, -2, 2, 2, 6, 4, -4, -6, -2, 4]",477004,[],mouselab-mdp
2,30,"[2013, 3050, 5157]","['left', 'left', 'up']",training,"['0', '9', '10', '11']","{'click': {'state': {'target': [], 'time': []}, 'edge': {'target': [], 'time': []}}, 'mouseover': {'state': {'target': [], 'time': []}, 'edge': {'target': [], 'time': []}}, 'mouseout': {'state': {'target': [], 'time': []}, 'edge': {'target': [], 'time': []}}}","[2, 2, -6]","[513.3999999985099, 859.6999999992549, 2012]",3,[],-2,"[None, None, None]","['', 6, 2, 4, 4, -2, 4, 2, 4, 2, 2, -6, -4]",512131,[],mouselab-mdp
2,31,"[2025, 3129, 4913]","['up', 'up', 'right']",training,"['0', '1', '2', '3']","{'click': {'state': {'target': [], 'time': []}, 'edge': {'target': [], 'time': []}}, 'mouseover': {'state': {'target': [], 'time': []}, 'edge': {'target': [], 'time': []}}, 'mouseout': {'state': {'target': [], 'time': []}, 'edge': {'target': [], 'time': []}}}","[4, -4, -4]","[551.9000000022352, 1625.5, 2024.300000000745]",3,[],-4,"[None, None, None]","['', 4, -4, -4, -4, -2, 4, 6, -4, 4, -2, 4, 4]",519528,[],mouselab-mdp
2,32,"[2843, 4216, 5476]","['right', 'right', 'up']",training,"['0', '5', '6', '7']","{'click': {'state': {'target': [], 'time': []}, 'edge': {'target': [], 'time': []}}, 'mouseover': {'state': {'target': [], 'time': []}, 'edge': {'target': [], 'time': []}}, 'mouseout': {'state': {'target': [], 'time': []}, 'edge': {'target': [], 'time': []}}}","[6, -4, -2]","[617, 1300.6000000014901, 2842.699999999255]",3,[],0,"[None, None, None]","['', -6, -6, -4, 2, 6, -4, -2, -4, -4, 6, -6, -4]",526283,[],mouselab-mdp
2,33,"[1505, 2457, 3587]","['right', 'right', 'down']",training,"['0', '5', '6', '8']","{'click': {'state': {'target': [], 'time': []}, 'edge': {'target': [], 'time': []}}, 'mouseover': {'state': {'target': [], 'time': []}, 'edge': {'target': [], 'time': []}}, 'mouseout': {'state': {'target': [], 'time': []}, 'edge': {'target': [], 'time': []}}}","[-2, -4, 2]","[894.6000000014901, 788.3000000007451, 1504]",3,[],-4,"[None, None, None]","['', -4, -4, 6, 2, -2, -4, -2, 2, 4, 4, 2, 2]",532974,[],mouselab-mdp
2,34,"[2049, 3095, 5026]","['left', 'left', 'up']",training,"['0', '9', '10', '11']","{'click': {'state': {'target': [], 'time': []}, 'edge': {'target': [], 'time': []}}, 'mouseover': {'state': {'target': [], 'time': []}, 'edge': {'target': [], 'time': []}}, 'mouseout': {'state': {'target': [], 'time': []}, 'edge': {'target': [], 'time': []}}}","[-2, -4, -4]","[468, 631.3000000007451, 2047.8999999985099]",3,[],-10,"[None, None, None]","['', -6, 6, -4, 6, -6, 4, -4, 6, -2, -4, -4, -2]",540173,[],mouselab-mdp
3,0,"[14319, 15502, 16229]","['right', 'right', 'up']",training,"['0', '5', '6', '7']","{'click': {'state': {'target': ['1', '9', '5', '7', '4', '11'], 'time': [5645, 7054, 7944, 8928, 10231, 11520]}, 'edge': {'target': [], 'time': []}}, 'mouseover': {'state': {'target': ['0', '1', '9', '0', '5', '7', '3', '2', '4', '11', '10', '12'], 'time': [1982, 5164, 6799, 7482, 7699, 8498, 9614, 9714, 9848, 10698, 11964, 12081]}, 'edge': {'target': [], 'time': []}}, 'mouseout': {'state': {'target': ['0', '1', '9', '0', '5', '7', '3', '2', '4', '11', '10', '12'], 'time': [2734, 6515, 7448, 7532, 8415, 9519, 9631, 9765, 10564, 11931, 12015, 12732]}, 'edge': {'target': [], 'time': []}}}","[-2, 4, 4]","[89091.19999980927, 38741.700000047684, 24397.199999809265]",3,0,0,"[None, None, None]","['', -4, -6, -6, 2, -2, 4, 4, 4, -4, 6, 2, -2]",89094,[],mouselab-mdp
3,1,"[4619, 5347, 6684]","['right', 'right', 'down']",training,"['0', '5', '6', '8']","{'click': {'state': {'target': ['8'], 'time': [2069]}, 'edge': {'target': [], 'time': []}}, 'mouseover': {'state': {'target': ['5', '8'], 'time': [968, 1634]}, 'edge': {'target': [], 'time': []}}, 'mouseout': {'state': {'target': ['5', '8'], 'time': [1567, 7984]}, 'edge': {'target': [], 'time': []}}}","[6, -6, 6]","[18621, 14316.799999952316, 669.5999999046326]",3,0.26,5,"[None, None, None]","['', -6, 2, -4, 4, 6, -6, 2, 6, -2, 2, -2, -2]",127839,[],mouselab-mdp
3,2,"[5186, 13021, 13834]","['left', 'left', 'down']",training,"['0', '9', '10', '12']","{'click': {'state': {'target': ['9'], 'time': [3823]}, 'edge': {'target': [], 'time': []}}, 'mouseover': {'state': {'target': ['10', '9'], 'time': [3212, 3279]}, 'edge': {'target': [], 'time': []}}, 'mouseout': {'state': {'target': ['10', '9', '12', '9', '11', '9'], 'time': [3246, 6363, 10346, 11413, 11779, 14929]}, 'edge': {'target': [], 'time': []}}}","[6, -4, 4]","[228.90000009536743, 4618, 228]",3,[],5,"[None, None, None]","['', 4, -4, -2, -6, 2, -2, -4, -2, 6, -4, -2, 4]",155198,[],mouselab-mdp
3,3,"[9991, 10753, 11535]","['left', 'left', 'up']",training,"['0', '9', '10', '11']","{'click': {'state': {'target': ['11', '3', '8'], 'time': [3027, 5999, 7455]}, 'edge': {'target': [], 'time': []}}, 'mouseover': {'state': {'target': ['10', '11', '3', '2', '7', '6', '8'], 'time': [2290, 2539, 5523, 6456, 6809, 7039, 7189]}, 'edge': {'target': [], 'time': []}}, 'mouseout': {'state': {'target': ['10', '11', '3', '2', '7', '6', '8'], 'time': [2356, 5160, 6423, 6689, 7022, 7106, 7989]}, 'edge': {'target': [], 'time': []}}}","[4, -2, 4]","[830.2999999523163, 5184.600000143051, 7318.099999904633]",3,[],3,"[None, None, None]","['', 4, -4, -4, -4, -2, 4, 6, -4, 4, -2, 4, 4]",173824,[],mouselab-mdp
3,4,"[2568, 3672, 4472]","['left', 'left', 'up']",training,"['0', '9', '10', '11']","{'click': {'state': {'target': ['11'], 'time': [1183]}, 'edge': {'target': [], 'time': []}}, 'mouseover': {'state': {'target': ['9', '11'], 'time': [685, 898]}, 'edge': {'target': [], 'time': []}}, 'mouseout': {'state': {'target': ['9', '11'], 'time': [736, 5614]}, 'edge': {'target': [], 'time': []}}}","[-6, -6, 6]","[320.59999990463257, 9989.899999856949, 262.2000000476837]",3,[],-7,"[None, None, None]","['', 6, 6, -4, -6, 4, 6, -6, 2, -6, -6, 6, 2]",193935,[],mouselab-mdp
3,5,"[9901, 10710, 11531]","['up', 'up', 'left']",training,"['0', '1', '2', '4']","{'click': {'state': {'target': ['12', '10', '7', '4'], 'time': [880, 3649, 5922, 7625]}, 'edge': {'target': [], 'time': []}}, 'mouseover': {'state': {'target': ['12', '9', '10', '9', '7', '2', '4', '2', '1', '2'], 'time': [663, 1947, 3229, 5180, 5579, 7016, 7313, 8063, 8479, 8730]}, 'edge': {'target': [], 'time': []}}, 'mouseout': {'state': {'target': ['12', '9', '10', '9', '7', '2', '4', '2', '1'], 'time': [1663, 2479, 5130, 5230, 6530, 7196, 7980, 8400, 8646]}, 'edge': {'target': [], 'time': []}}}","[6, -4, 6]","[277.40000009536743, 2566.399999856949, 605.3999998569489]",3,[],4,"[None, None, None]","['', 6, -4, 4, 6, -6, -2, -6, 4, -4, -2, -6, 2]",203417,[],mouselab-mdp
3,6,"[11064, 11767, 12537]","['up', 'up', 'right']",training,"['0', '1', '2', '3']","{'click': {'state': {'target': ['4', '8', '6', '11', '10', '9', '3'], 'time': [902, 2142, 3289, 4798, 5776, 7177, 9966]}, 'edge': {'target': [], 'time': []}}, 'mouseover': {'state': {'target': ['2', '4', '6', '8', '6', '0', '9', '11', '10', '9', '0', '5', '7', '3'], 'time': [None, 597, 1734, 1831, 2780, 3947, 4015, 4515, 5447, 6381, 8568, 8697, 8914, 9618]}, 'edge': {'target': [], 'time': []}}, 'mouseout': {'state': {'target': ['2', '4', '6', '8', '6', '0', '9', '11', '10', '9', '0', '5', '7'], 'time': [548, 1348, 1764, 2733, 3880, 3980, 4149, 5398, 6151, 8214, 8598, 8814, 9283]}, 'edge': {'target': [], 'time': []}}}","[6, -6, 4]","[305.90000009536743, 9900.200000047684, 295.2999999523163]",3,[],-3,"[None, None, None]","['', 6, -6, 4, -4, 6, -4, -6, 4, -6, 2, 2, 4]",219415,[],mouselab-mdp
3,7,"[4918, 5782, 6534]","['right', 'right', 'up']",training,"['0', '5', '6', '7']","{'click': {'state': {'target': ['4', '7', '6'], 'time': [1237, 2334, 3762]}, 'edge': {'target': [], 'time': []}}, 'mouseover': {'state': {'target': ['3', '2', '4', '2', '7', '6', '5', '6'], 'time': [None, 783, 900, 1716, 2104, 3001, 3383, 3483]}, 'edge': {'target': [], 'time': []}}, 'mouseout': {'state': {'target': ['3', '2', '4', '2', '7', '6', '5', '6'], 'time': [500, 800, 1684, 1784, 2684, 3220, 3438, 7834]}, 'edge': {'target': [], 'time': []}}}","[2, 4, 2]","[315.90000009536743, 11062.800000190735, 201]",3,[],5,"[None, None, None]","['', 6, -4, -6, -6, 2, 4, 2, 4, -2, 6, 2, 4]",232602,[],mouselab-mdp
3,8,"[9785, 10492, 11365]","['right', 'right', 'down']",training,"['0', '5', '6', '8']","{'click': {'state': {'target': ['7', '12', '4', '2', '1', '8'], 'time': [1259, 2423, 3596, 5181, 6484, 8302]}, 'edge': {'target': [], 'time': []}}, 'mouseover': {'state': {'target': ['7', '9', '10', '12', '4', '2', '1', '2', '1', '0', '5', '8', '6'], 'time': [607, 1807, 1956, 2173, 3307, 4307, 4540, 4893, 6223, 7590, 7673, 7873, 8674]}, 'edge': {'target': [], 'time': []}}, 'mouseout': {'state': {'target': ['7', '9', '10', '12', '4', '2', '1', '2', '1', '1', '0', '5', '8'], 'time': [1707, 1890, 2057, 2757, 3957, 4490, 4841, 6193, 6857, 7423, 7608, 7757, 8641]}, 'edge': {'target': [], 'time': []}}}","[4, 4, 4]","[270.7000000476837, 4916.600000143051, 363.39999985694885]",3,[],6,"[None, None, None]","['', -4, -6, -2, 6, 4, 4, -6, 4, 4, -4, -2, -6]",239003,[],mouselab-mdp
3,9,"[6500, 7380, 8188]","['left', 'left', 'up']",training,"['0', '9', '10', '11']","{'click': {'state': {'target': ['8', '6', '11', '10'], 'time': [843, 2643, 3888, 4529]}, 'edge': {'target': [], 'time': []}}, 'mouseover': {'state': {'target': ['6', '8', '6', '7', '6', '1', '11', '10', '9'], 'time': [None, 572, 1305, 1455, 2322, 3288, 3609, 4272, 4892]}, 'edge': {'target': [], 'time': []}}, 'mouseout': {'state': {'target': ['6', '8', '6', '7', '6', '1', '11', '10'], 'time': [492, 1239, 1355, 1558, 3088, 3354, 4206, 4856]}, 'edge': {'target': [], 'time': []}}}","[4, 4, 2]","[232.29999995231628, 9783.599999904633, 199.40000009536743]",3,[],6,"[None, None, None]","['', -4, -4, 6, 2, -2, -4, -2, 2, 4, 4, 2, 2]",252001,[],mouselab-mdp
3,10,"[4241, 4923, 5554]","['up', 'up', 'right']",training,"['0', '1', '2', '3']","{'click': {'state': {'target': ['4', '3', '1'], 'time': [1081, 2089, 2947]}, 'edge': {'target': [], 'time': []}}, 'mouseover': {'state': {'target': ['9', '4', '2', '3', '1'], 'time': [None, 747, 1497, 1713, 2630]}, 'edge': {'target': [], 'time': []}}, 'mouseout': {'state': {'target': ['9', '4', '2', '3', '1'], 'time': [447, 1464, 1564, 2499, 3281]}, 'edge': {'target': [], 'time': []}}}","[6, 4, 6]","[356.2999999523163, 6498, 389]",3,[],13,"[None, None, None]","['', 6, 4, 6, 2, 6, -6, 4, 4, 4, 4, -4, 2]",266487,[],mouselab-mdp
3,11,"[15834, 16446, 17053]","['up', 'up', 'left']",training,"['0', '1', '2', '4']","{'click': {'state': {'target': ['8', '10', '2', '7', '4', '3', '1'], 'time': [1735, 2775, 3873, 4969, 8810, 9695, 14664]}, 'edge': {'target': [], 'time': []}}, 'mouseover': {'state': {'target': ['3', '5', '8', '10', '1', '2', '7', '1', '4', '3', '1'], 'time': [850, 1199, 1316, 2482, 3384, 3620, 4683, 5616, 8583, 9466, 14399]}, 'edge': {'target': [], 'time': []}}, 'mouseout': {'state': {'target': ['3', '5', '8', '10', '10', '1', '2', '7', '1', '4', '3'], 'time': [1033, 1234, 2149, 3067, 3284, 3400, 4437, 5271, 8318, 9151, 12717]}, 'edge': {'target': [], 'time': []}}}","[4, -2, 2]","[313.7999999523163, 4239.299999952316, 190.89999985694885]",3,[],-3,"[None, None, None]","['', 4, -2, -2, 2, 6, 6, -2, -2, -4, -6, 6, 4]",275085,[],mouselab-mdp
3,12,"[3447, 4196, 4935]","['up', 'up', 'left']",training,"['0', '1', '2', '4']","{'click': {'state': {'target': ['4', '2'], 'time': [1222, 2396]}, 'edge': {'target': [], 'time': []}}, 'mouseover': {'state': {'target': ['1', '4', '1', '2'], 'time': [None, 883, 1733, 2185]}, 'edge': {'target': [], 'time': []}}, 'mouseout': {'state': {'target': ['1', '4', '1', '2', '1'], 'time': [617, 1638, 2118, 3521, 3567]}, 'edge': {'target': [], 'time': []}}}","[6, 4, 4]","[122, 15832.299999952316, 111.5]",3,[],12,"[None, None, None]","['', 6, 4, -2, 4, 4, -2, 6, 4, 6, -4, 6, -2]",288047,[],mouselab-mdp
3,13,"[7095, 7837, 8511]","['up', 'up', 'right']",training,"['0', '1', '2', '3']","{'click': {'state': {'target': ['8', '6', '11', '12', '3', '2'], 'time': [1284, 1920, 3088, 4194, 5297, 6043]}, 'edge': {'target': [], 'time': []}}, 'mouseover': {'state': {'target': ['1', '1', '5', '6', '8', '6', '5', '0', '9', '11', '10', '12', '10', '9', '1', '3', '2'], 'time': [425, 676, 804, 854, 1054, 1637, 2437, 2470, 2504, 2820, 3454, 3974, 4505, 4721, 4805, 5037, 5820]}, 'edge': {'target': [], 'time': []}}, 'mouseout': {'state': {'target': ['1', '1', '5', '6', '8', '6', '5', '0', '9', '11', '10', '12', '10', '9', '1', '3', '2'], 'time': [587, 738, 837, 920, 1591, 2420, 2454, 2487, 2575, 3371, 3721, 4404, 4670, 4741, 4854, 5738, 6387]}, 'edge': {'target': [], 'time': []}}}","[4, 2, 4]","[117.60000014305115, 3445.7000000476837, 243.29999995231628]",3,[],4,"[None, None, None]","['', 4, 2, 4, -2, 6, -6, -4, 2, -4, -2, -4, -6]",298031,[],mouselab-mdp
3,14,"[5056, 5770, 6472]","['left', 'left', 'down']",training,"['0', '9', '10', '12']","{'click': {'state': {'target': ['3', '8', '12', '10'], 'time': [850, 1903, 3354, 3984]}, 'edge': {'target': [], 'time': []}}, 'mouseover': {'state': {'target': ['3', '6', '8', '10', '12', '10', '9'], 'time': [409, 1462, 1541, 2509, 3059, 3725, 4529]}, 'edge': {'target': [], 'time': []}}, 'mouseout': {'state': {'target': ['3', '6', '8', '10', '12', '10'], 'time': [1325, 1492, 2242, 3010, 3691, 4259]}, 'edge': {'target': [], 'time': []}}}","[4, 4, 4]","[232.5, 7093, 231.70000004768372]",3,[],8,"[None, None, None]","['', -6, -2, -2, -4, -2, -4, -4, -4, 4, 4, 6, 4]",305082,[],mouselab-mdp
3,15,"[10695, 11466, 12227]","['up', 'up', 'right']",training,"['0', '1', '2', '3']","{'click': {'state': {'target': ['7', '4', '12', '8', '11', '3'], 'time': [1946, 2838, 3839, 4911, 5914, 6738]}, 'edge': {'target': [], 'time': []}}, 'mouseover': {'state': {'target': ['9', '10', '11', '1', '7', '4', '10', '12', '10', '9', '8', '0', '9', '11', '1', '3', '1'], 'time': [None, 677, 944, 1445, 1728, 2532, 3429, 3561, 4331, 4482, 4561, 5418, 5462, 5683, 6277, 6445, 8596]}, 'edge': {'target': [], 'time': []}}, 'mouseout': {'state': {'target': ['9', '10', '11', '1', '7', '4', '10', '12', '10', '9', '8', '8', '0', '9', '11', '1', '3', '1', '0'], 'time': [628, 694, 1395, 1461, 2361, 3229, 3512, 4294, 4449, 4502, 5178, 5346, 5428, 5528, 6145, 6311, 8278, 11212, 13395]}, 'edge': {'target': [], 'time': []}}}","[2, 6, -2]","[171.59999990463257, 5054, 225.79999995231628]",3,[],0,"[None, None, None]","['', 2, 6, -2, -6, 4, -4, -6, -6, 4, -2, -4, -6]",323559,[],mouselab-mdp
3,16,"[4675, 5428, 8028]","['left', 'left', 'up']",training,"['0', '9', '10', '11']","{'click': {'state': {'target': ['3', '12', '10'], 'time': [932, 2124, 3655]}, 'edge': {'target': [], 'time': []}}, 'mouseover': {'state': {'target': ['0', '3', '1', '10', '12', '10', '10', '10'], 'time': [325, 691, 1408, 1725, 1825, 2625, 3042, 3376]}, 'edge': {'target': [], 'time': []}}, 'mouseout': {'state': {'target': ['0', '3', '1', '10', '12', '10', '10', '10', '9'], 'time': [342, 1325, 1458, 1775, 2575, 2726, 3292, 3908, 4876]}, 'edge': {'target': [], 'time': []}}}","[-6, 2, -6]","[211.20000004768372, 10694.299999952316, 269.19999980926514]",3,[],-13,"[None, None, None]","['', -6, 2, -4, -4, 2, -6, 6, 2, -6, 2, -6, 2]",329724,[],mouselab-mdp
3,17,"[3258, 3887, 4698]","['right', 'right', 'down']",training,"['0', '5', '6', '8']","{'click': {'state': {'target': ['8', '5'], 'time': [1204, 2382]}, 'edge': {'target': [], 'time': []}}, 'mouseover': {'state': {'target': ['9', '8', '6', '6', '5'], 'time': [None, 957, 1611, 1990, 2141]}, 'edge': {'target': [], 'time': []}}, 'mouseout': {'state': {'target': ['9', '8', '6', '6', '5'], 'time': [640, 1574, 1657, 2024, 2590]}, 'edge': {'target': [], 'time': []}}}","[4, 4, 6]","[247.70000004768372, 4673.599999904633, 234.40000009536743]",3,[],12,"[None, None, None]","['', -2, 6, 4, 2, 4, 4, 4, 6, -4, -2, -2, 6]",339801,[],mouselab-mdp
3,18,"[2933, 3655, 4332]","['up', 'up', 'right']",training,"['0', '1', '2', '3']","{'click': {'state': {'target': ['3', '2'], 'time': [1310, 2016]}, 'edge': {'target': [], 'time': []}}, 'mouseover': {'state': {'target': ['8', '5', '1', '3', '2'], 'time': [440, 673, 773, 1044, 1740]}, 'edge': {'target': [], 'time': []}}, 'mouseout': {'state': {'target': ['8', '5', '1', '3', '2', '1', '0'], 'time': [639, 706, 890, 1673, 2307, 5239, 5477]}, 'edge': {'target': [], 'time': []}}}","[2, 6, 6]","[2084.0999999046326, 3256.2999999523163, 112.5]",3,[],12,"[None, None, None]","['', 2, 6, 6, -4, 2, -6, -6, -2, -6, 4, -6, -4]",347585,[],mouselab-mdp
3,19,"[3359, 4089, 4762]","['right', 'right', 'down']",training,"['0', '5', '6', '8']","{'click': {'state': {'target': ['11', '8', '6'], 'time': [788, 1893, 2557]}, 'edge': {'target': [], 'time': []}}, 'mouseover': {'state': {'target': ['9', '11', '9', '0', '6', '8', '6'], 'time': [349, 548, 1215, 1282, 1515, 1665, 2298]}, 'edge': {'target': [], 'time': []}}, 'mouseout': {'state': {'target': ['9', '11', '9', '0', '6', '8'], 'time': [382, 982, 1265, 1301, 1615, 2265]}, 'edge': {'target': [], 'time': []}}}","[2, 6, 4]","[305.7999999523163, 2931.2999999523163, 213.39999985694885]",3,[],9,"[None, None, None]","['', -2, -4, 6, -4, 2, 6, -4, 4, -4, 4, -6, 4]",361283,[],mouselab-mdp
3,20,"[7106, 8096, 8730]","['right', 'right', 'down']",training,"['0', '5', '6', '8']","{'click': {'state': {'target': ['3', '8', '6', '12'], 'time': [1003, 2111, 2922, 4351]}, 'edge': {'target': [], 'time': []}}, 'mouseover': {'state': {'target': ['6', '3', '5', '6', '8', '6', '5', '0', '12', '10', '9'], 'time': [None, 740, 1657, 1740, 1857, 2623, 3724, 3790, 4090, 4757, 4973]}, 'edge': {'target': [], 'time': []}}, 'mouseout': {'state': {'target': ['6', '3', '5', '6', '8', '6', '5', '0', '12', '10', '9'], 'time': [357, 1473, 1690, 1811, 2573, 3674, 3774, 3807, 4673, 4940, 4990]}, 'edge': {'target': [], 'time': []}}}","[2, -6, 6]","[157.5, 3357.7999999523163, 218.90000009536743]",3,[],-2,"[None, None, None]","['', 6, 6, -4, 4, 2, -6, -6, 6, -4, -6, 2, -6]",372304,[],mouselab-mdp
3,21,"[8894, 9623, 11268]","['up', 'up', 'right']",training,"['0', '1', '2', '3']","{'click': {'state': {'target': ['11', '10', '9', '6', '1', '4', '3'], 'time': [769, 1430, 2553, 4562, 5621, 6437, 7994]}, 'edge': {'target': [], 'time': []}}, 'mouseover': {'state': {'target': ['0', '0', '11', '10', '9', '5', '6', '6', '1', '2', '4', '2', '3'], 'time': [223, 272, 593, 1189, 1972, 4040, 4090, 4342, 5373, 5906, 6191, 7443, 7607]}, 'edge': {'target': [], 'time': []}}, 'mouseout': {'state': {'target': ['0', '0', '11', '10', '9', '5', '6', '6', '1', '2', '4', '2', '3'], 'time': [239, 289, 1010, 1706, 3356, 4056, 4156, 4856, 5841, 6106, 6739, 7489, 9022]}, 'edge': {'target': [], 'time': []}}}","[6, -4, 2]","[178.5, 7104.799999952316, 470]",3,[],-3,"[None, None, None]","['', 6, -4, 2, 2, 6, -6, -2, 6, -4, -2, 6, -6]",378354,[],mouselab-mdp
3,22,"[5360, 6136, 6892]","['left', 'left', 'up']",training,"['0', '9', '10', '11']","{'click': {'state': {'target': ['7', '6', '10', '11'], 'time': [1034, 1830, 3206, 4919]}, 'edge': {'target': [], 'time': []}}, 'mouseover': {'state': {'target': ['1', '7', '6', '5', '10', '11'], 'time': [415, 781, 1348, 2348, 2899, 4665]}, 'edge': {'target': [], 'time': []}}, 'mouseout': {'state': {'target': ['1', '7', '6', '5', '10', '10', '11', '9'], 'time': [482, 1299, 2315, 2431, 3432, 4582, 5081, 7898]}, 'edge': {'target': [], 'time': []}}}","[2, 6, 6]","[137.39999985694885, 8894, 231.90000009536743]",3,[],10,"[None, None, None]","['', 4, 6, 6, 4, 6, -2, 2, -4, 2, 6, 6, -6]",384315,[],mouselab-mdp
